frame_seq,absolute_seq_u64,segment_id,sample_seq,PPG_G,PPG_R,PPG_IR,ACC_X,ACC_Y,ACC_Z,GYRO_X,GYRO_Y,GYRO_Z,Uh1,Uh2,Uh3,Uh4,Uc1,Uc2,Uc3,Uc4,UD1,UD2,parser_valid
58507,78241,0,78242,3469.0,39238.0,28792.0,-0.0050019999999999995,-0.009516,0.000366,0.3325,0.07,-3.4125000000000005,0.98165625,0.0314375,-0.14078125,1.1688125,0.93565625,-0.46900000000000003,-0.866375,1.1145,0.020451898320323673,0.02917971557977389,True
58508,78242,0,78243,3469.0,39237.0,28795.0,-0.010797,0.0008539999999999999,-0.0013419999999999999,0.77,0.0,-3.5525,0.97621875,0.03371875,-0.139875,1.15709375,0.9423750000000001,-0.478625,-0.8655,1.123,0.02093025037149758,0.029181999155456356,True
58509,78243,0,78244,3470.0,39236.0,28794.0,-0.011407,0.008662,0.001647,0.8925000000000001,-0.31500000000000006,-3.5700000000000003,0.9801875,0.0315625,-0.14296875,1.175,0.96646875,-0.48828125,-0.8749687500000001,1.13521875,0.021228266071143725,0.02942717264720182,True
58510,78244,0,78245,3470.0,39235.0,28794.0,0.004514,0.002806,-0.001281,0.35000000000000003,-1.4000000000000001,-3.7975000000000003,0.9835,0.0306875,-0.14303125,1.16840625,0.95528125,-0.48340625000000004,-0.869625,1.138625,0.02099763998320291,0.029216112024206233,True
58511,78245,0,78246,3472.0,39237.0,28796.0,0.007137,0.000793,-0.0032329999999999998,0.2625,-1.7675,-3.8500000000000005,0.977375,0.03440625,-0.1410625,1.1710625000000001,0.95559375,-0.4748125,-0.86846875,1.136875,0.02080582844097376,0.029250142311234986,True
58512,78246,0,78247,3471.0,39239.0,28797.0,0.003843,0.001586,-0.001647,0.385,-1.6975000000000002,-3.7975000000000003,0.97571875,0.0398125,-0.13659375,1.16771875,0.94875,-0.4794375,-0.863125,1.1090625,0.021211680211197664,0.029221236268570427,True
58513,78247,0,78248,3474.0,39239.0,28796.0,-0.000549,0.0040869999999999995,0.00122,0.42000000000000004,-1.6625,-3.7450000000000006,0.9766875,0.0345625,-0.1394375,1.16596875,0.91915625,-0.46815625,-0.85978125,1.105875,0.020545836999876114,0.028976270658053357,True
58514,78248,0,78249,3473.0,39237.0,28795.0,-0.000549,0.0013419999999999999,0.0006709999999999999,0.31500000000000006,-1.4175000000000002,-3.7450000000000006,0.9755625,0.034,-0.1386875,1.16684375,0.9215,-0.47321875,-0.85265625,1.104875,0.020725461378062502,0.02872806603921865,True
58515,78249,0,78250,3472.0,39238.0,28794.0,-0.000122,-0.0071979999999999995,-0.001769,0.17500000000000002,-0.9625000000000001,-3.6225000000000005,0.9759375,0.03490625,-0.14046875,1.1732500000000001,0.91834375,-0.4708125,-0.850875,1.11775,0.020666201827176763,0.028586770083548367,True
58516,78250,0,78251,3475.0,39237.0,28796.0,-0.0026839999999999998,-0.005795,0.001647,0.31500000000000006,-0.6825000000000001,-3.5000000000000004,0.980375,0.035312500000000004,-0.1394375,1.16775,0.92875,-0.4720625,-0.856875,1.09759375,0.02073282544125572,0.0288627391818159,True
58517,78251,0,78252,3477.0,39239.0,28798.0,-0.003477,-0.002928,0.003904,0.42000000000000004,-0.5775,-3.5000000000000004,0.97590625,0.034625,-0.14221875,1.1725625,0.9194687500000001,-0.47650000000000003,-0.87415625,1.12675,0.02088227483504586,0.029425621220820302,True
58518,78252,0,78253,3477.0,39239.0,28798.0,-0.001952,-0.001769,0.002013,0.4025,-0.7875000000000001,-3.6400000000000006,0.9811562500000001,0.029750000000000002,-0.14278125,1.173375,0.941875,-0.4861875,-0.8671562500000001,1.133875,0.021070552530891143,0.029129788413180542,True
58519,78253,0,78254,3478.0,39239.0,28799.0,0.000244,0.000183,-0.001281,0.385,-0.9975,-3.7450000000000006,0.9695625,0.03896875,-0.143125,1.17478125,0.9500625,-0.4796875,-0.8647812500000001,1.1241875000000001,0.021187208782791858,0.029023229391973843,True
58520,78254,0,78255,3479.0,39238.0,28799.0,0.001769,0.003843,-0.000976,0.4025,-1.3825,-3.7625,0.98121875,0.031,-0.139875,1.17140625,0.93684375,-0.4794375,-0.8618750000000001,1.11515625,0.02085168419413232,0.02904044847784007,True
58521,78255,0,78256,3479.0,39240.0,28801.0,0.002379,0.003843,0.0008539999999999999,0.31500000000000006,-1.435,-3.8500000000000005,0.9801875,0.035187500000000003,-0.1395,1.1675312500000001,0.9341875000000001,-0.47500000000000003,-0.86271875,1.12171875,0.020845250255362616,0.02908848212748254,True
58522,78256,0,78257,3480.0,39243.0,28801.0,0.0032329999999999998,0.000915,0.001037,0.2625,-1.33,-3.8500000000000005,0.9723437500000001,0.03540625,-0.1398125,1.1656250000000001,0.93371875,-0.47553125,-0.8621875,1.11584375,0.02087544065054768,0.029055166605915107,True
58523,78257,0,78258,3483.0,39241.0,28802.0,0.000122,0.0015249999999999999,0.00061,0.21000000000000002,-1.0675000000000001,-3.9550000000000005,0.9753437500000001,0.03471875,-0.14046875,1.166,0.93209375,-0.47496875,-0.86103125,1.1150625,0.020824847835607552,0.0289836126568563,True
58524,78258,0,78259,3482.0,39244.0,28801.0,-0.007137,0.0028669999999999998,0.0030499999999999998,0.14,-0.8925000000000001,-3.9550000000000005,0.9756875,0.034,-0.13946875,1.17228125,0.9315,-0.475375,-0.8584375,1.11625,0.02081173424309127,0.028922523790966343,True
58525,78259,0,78260,3484.0,39244.0,28800.0,-0.010065,-0.0006709999999999999,0.001464,-0.17500000000000002,-1.0150000000000001,-4.095000000000001,0.98190625,0.03265625,-0.14309375,1.16815625,0.9319375,-0.47615625,-0.8593437500000001,1.11534375,0.020788088407467983,0.028812104100696546,True
58526,78260,0,78261,3486.0,39245.0,28801.0,-0.005978,-0.0040869999999999995,0.000976,-0.42000000000000004,-1.6275000000000002,-4.095000000000001,0.9763125,0.0336875,-0.1416875,1.17103125,0.92421875,-0.476125,-0.862,1.11515625,0.020828971089173635,0.028972427801464085,True
58527,78261,0,78262,3484.0,39244.0,28799.0,-0.000122,-0.00671,-0.000183,-0.5075000000000001,-2.3275,-3.9025000000000003,0.97015625,0.03653125,-0.1408125,1.1686875,0.93384375,-0.47675,-0.8641875,1.1214375,0.020970155351507043,0.029093047983168564,True
58528,78262,0,78263,3487.0,39247.0,28802.0,0.005124,-0.003721,-0.0017079999999999999,-0.35000000000000003,-2.9575000000000005,-3.7800000000000002,0.9768125,0.0349375,-0.13990625,1.16765625,0.93678125,-0.4776875,-0.86575,1.1146562500000001,0.020942542059988307,0.029190503001115996,True
58529,78263,0,78264,3487.0,39249.0,28802.0,0.011712,0.00122,-0.0037819999999999998,-0.15750000000000003,-3.6750000000000003,-3.7800000000000002,0.976375,0.04071875,-0.13790625,1.16471875,0.91840625,-0.47553125,-0.8579687500000001,1.1151875,0.02109249416189894,0.028967069161674765,True
58530,78264,0,78265,3488.0,39252.0,28802.0,0.012565999999999999,0.002379,-0.0040869999999999995,0.07,-3.3075,-3.8325000000000005,0.9773125,0.0349375,-0.14303125,1.1766875,0.930875,-0.472375,-0.85703125,1.11521875,0.02073000679337416,0.02872426690134205,True
58531,78265,0,78266,3491.0,39250.0,28802.0,0.008296,0.001769,-0.0032329999999999998,0.24500000000000002,-2.4850000000000003,-3.7800000000000002,0.9910625000000001,0.031125,-0.13490625,1.16253125,0.92559375,-0.47940625000000003,-0.866125,1.1226562500000001,0.02085554056279449,0.02940622030975876,True
58532,78266,0,78267,3490.0,39252.0,28802.0,0.000183,0.002379,-0.0032329999999999998,0.36750000000000005,-1.5925000000000002,-3.7450000000000006,0.96884375,0.035562500000000004,-0.13853125,1.1638125,0.9400000000000001,-0.47790625000000003,-0.865625,1.1201875000000001,0.02097682476416871,0.029240919944702775,True
58533,78267,0,78268,3490.0,39253.0,28807.0,-0.004392,0.000915,0.000976,0.43750000000000006,-0.8575,-3.7275000000000005,0.9720625,0.0421875,-0.1376875,1.1608125,0.9370625,-0.4763125,-0.86109375,1.12146875,0.021183746530446534,0.029097925347713233,True
58534,78268,0,78269,3491.0,39252.0,28806.0,-0.0062829999999999995,-0.000305,0.002379,0.49000000000000005,0.15750000000000003,-3.6400000000000006,0.9690625,0.03446875,-0.1450625,1.1828750000000001,0.93925,-0.474625,-0.86284375,1.1109375000000001,0.020800880503787086,0.02886963604072845,True
58535,78269,0,78270,3493.0,39252.0,28806.0,-0.006588,0.000183,0.0026839999999999998,0.6125,0.385,-3.6750000000000003,0.98803125,0.02640625,-0.13509375,1.165125,0.93103125,-0.47275,-0.86659375,1.12109375,0.02039641029308108,0.029416976339994298,True
58536,78270,0,78271,3494.0,39253.0,28806.0,-0.006527,-0.0006709999999999999,0.00366,0.5950000000000001,0.35000000000000003,-3.5175000000000005,0.95959375,0.03509375,-0.139625,1.16640625,0.93990625,-0.4734375,-0.86203125,1.110125,0.020778905701334355,0.029056606145163623,True
58537,78271,0,78272,3494.0,39251.0,28806.0,-0.003538,-0.0028669999999999998,0.001464,0.56,0.07,-3.4475000000000002,0.97778125,0.031968750000000004,-0.1429375,1.18215625,0.9314375,-0.47540625000000003,-0.862625,1.11525,0.02072999299041257,0.02894656135464377,True
58538,78272,0,78273,3495.0,39250.0,28804.0,-0.001769,-0.00183,-0.000976,0.6825000000000001,-0.17500000000000002,-3.4475000000000002,0.991125,0.029656250000000002,-0.14421875,1.1771562500000001,0.93059375,-0.47584375,-0.86328125,1.12096875,0.020653016303064122,0.028920659858601726,True
58539,78273,0,78274,3496.0,39251.0,28804.0,0.001952,0.003477,-0.001403,0.8575,-0.7525000000000001,-3.4125000000000005,0.985375,0.03759375,-0.136375,1.1615312500000001,0.92659375,-0.47609375,-0.86540625,1.1223750000000001,0.0209873154289581,0.029319096686787494,True
58540,78274,0,78275,3498.0,39248.0,28804.0,0.003172,0.002745,-0.002074,0.9450000000000001,-0.665,-3.3600000000000003,0.95621875,0.03315625,-0.14775,1.1626875,0.93634375,-0.47565625,-0.86259375,1.12234375,0.020788513076130492,0.028751776954083885,True
58541,78275,0,78276,3497.0,39249.0,28803.0,0.00488,0.0008539999999999999,-0.002074,0.805,-0.5425000000000001,-3.3950000000000005,0.9697187500000001,0.03421875,-0.1430625,1.18396875,0.93015625,-0.47146875,-0.8629687500000001,1.11575,0.020664370625486057,0.028954959371052583,True
58542,78276,0,78277,3499.0,39246.0,28805.0,0.002257,-0.0017079999999999999,-0.001403,0.7175,-0.3325,-3.3775000000000004,0.98884375,0.03103125,-0.13678125,1.1620625,0.923,-0.47981250000000003,-0.86465625,1.123875,0.0208679600793511,0.029273479298552542,True
58543,78277,0,78278,3501.0,39246.0,28805.0,-0.0008539999999999999,-0.00244,0.000488,0.5950000000000001,-0.21000000000000002,-3.2725000000000004,0.96928125,0.03659375,-0.14034375,1.1723125,0.9373750000000001,-0.47503125,-0.86259375,1.11571875,0.02090395696634708,0.029049664216952428,True
58544,78278,0,78279,3502.0,39246.0,28805.0,-0.006527,0.002562,0.005795,0.7000000000000001,-0.07,-3.535,0.97659375,0.03628125,-0.13803125,1.170125,0.93796875,-0.47853125,-0.862,1.115875,0.02103118421371789,0.029119489582495377,True
58545,78279,0,78280,3502.0,39245.0,28803.0,-0.008662,0.0018909999999999999,0.004941,0.6300000000000001,-0.8925000000000001,-3.6225000000000005,0.97259375,0.031656250000000004,-0.14,1.16784375,0.931125,-0.478375,-0.8619375,1.1151875,0.02083599299381597,0.02903786159063428,True
58546,78280,0,78281,3501.0,39242.0,28805.0,-0.002928,-0.000488,-0.0013419999999999999,0.56,-1.8550000000000002,-3.43,0.976125,0.033875,-0.140375,1.1740625,0.93215625,-0.475125,-0.86259375,1.1193125,0.020796625144917546,0.029048407308670282,True
58547,78281,0,78282,3499.0,39242.0,28802.0,0.002989,-0.0015249999999999999,0.000305,0.49000000000000005,-1.7850000000000001,-3.3950000000000005,0.97528125,0.03434375,-0.140625,1.16828125,0.93921875,-0.475875,-0.862375,1.11584375,0.020845781815767565,0.029029809099090493,True
58548,78282,0,78283,3498.0,39239.0,28799.0,0.003965,-0.001281,-0.002562,0.525,-2.2225,-3.43,0.9845,0.031625,-0.14296875,1.16728125,0.93109375,-0.47296875,-0.86475,1.12075,0.020618411895777865,0.02902829306548427,True
58549,78283,0,78284,3493.0,39238.0,28795.0,0.001586,-0.000976,0.000183,0.5425000000000001,-1.8550000000000002,-3.43,0.97590625,0.0361875,-0.1398125,1.16728125,0.9342812500000001,-0.4760625,-0.85803125,1.1155625,0.020928611372846427,0.028892825130711026,True
58550,78284,0,78285,3493.0,39235.0,28797.0,0.000732,-0.001037,-0.0026839999999999998,0.45500000000000007,-1.9250000000000003,-3.4825000000000004,0.96803125,0.0304375,-0.14309375,1.17328125,0.932,-0.4759375,-0.8632500000000001,1.12146875,0.020688686592699464,0.028964686836998384,True
58551,78285,0,78286,3487.0,39231.0,28795.0,0.000915,-0.000915,-0.00183,0.47250000000000003,-1.9775000000000003,-3.5700000000000003,0.98259375,0.032875,-0.1396875,1.16796875,0.9358125,-0.4774375,-0.85959375,1.1103750000000001,0.02084828119773567,0.02895889036802945,True
58552,78286,0,78287,3485.0,39232.0,28793.0,0.001952,0.000244,-0.000976,0.43750000000000006,-1.8725000000000003,-3.7450000000000006,0.976625,0.03528125,-0.14003125,1.1675625,0.9313750000000001,-0.475125,-0.8625625,1.11515625,0.020854081439829218,0.029061012918519567,True
58553,78287,0,78288,3483.0,39232.0,28790.0,0.001403,0.000183,0.000305,0.385,-1.6275000000000002,-3.7800000000000002,0.97571875,0.034125,-0.1413125,1.17503125,0.9314687500000001,-0.47553125,-0.8638125,1.115625,0.020823092450751198,0.02905829506235216,True
58554,78288,0,78289,3480.0,39229.0,28788.0,-0.000976,0.000976,0.000122,0.24500000000000002,-1.3650000000000002,-4.0075,0.9816875,0.0310625,-0.14253125,1.173375,0.9380937500000001,-0.473875,-0.86503125,1.115,0.020631694000234947,0.029056870781129625,True
58555,78289,0,78290,3476.0,39229.0,28789.0,-0.001464,0.002196,0.001281,0.31500000000000006,-1.3825,-3.9025000000000003,0.97128125,0.03471875,-0.1401875,1.1665,0.93203125,-0.475625,-0.86065625,1.11578125,0.020851101861545925,0.028980278829123827,True
58556,78290,0,78291,3475.0,39227.0,28787.0,-0.001403,0.003355,0.001647,0.36750000000000005,-1.4175000000000002,-3.9550000000000005,0.97571875,0.0350625,-0.1395625,1.17565625,0.9320625,-0.472125,-0.86446875,1.12159375,0.020725110712698634,0.029154302763858567,True
58557,78291,0,78292,3472.0,39226.0,28786.0,0.001464,0.001098,-0.000183,0.36750000000000005,-1.4175000000000002,-4.0425,0.98128125,0.03259375,-0.1428125,1.167375,0.93771875,-0.4756875,-0.8635,1.11571875,0.020766781321260128,0.02898576226195025,True
58558,78292,0,78293,3471.0,39224.0,28784.0,0.000305,-0.000915,0.000305,0.29750000000000004,-1.435,-3.9550000000000005,0.9751875,0.03478125,-0.139625,1.161875,0.92509375,-0.47515625,-0.86353125,1.1205,0.020834902739384965,0.02911518250248544,True
58559,78293,0,78294,3469.0,39222.0,28783.0,-0.000549,-0.00042699999999999997,-0.001098,0.3325,-1.2600000000000002,-3.8675,0.9851562500000001,0.0331875,-0.1406875,1.16671875,0.93925,-0.47146875,-0.86290625,1.1147500000000001,0.020622229713939833,0.029048042201422045,True
58560,78294,0,78295,3468.0,39224.0,28783.0,-0.001403,0.000305,-0.0008539999999999999,0.3325,-1.2425000000000002,-3.8325000000000005,0.9760625,0.03465625,-0.14240625,1.17396875,0.9316875,-0.47809375,-0.8649687500000001,1.1203750000000001,0.020947301094473503,0.0290594573942507,True
58561,78295,0,78296,3467.0,39224.0,28779.0,-0.001098,-0.000122,-0.000183,0.385,-1.1375000000000002,-3.8500000000000005,0.9835625,0.03384375,-0.1399375,1.167875,0.92459375,-0.4758125,-0.86328125,1.11540625,0.02082285317392426,0.02909285153181461,True
58562,78296,0,78297,3466.0,39222.0,28778.0,-0.000122,-0.0015249999999999999,0.00183,0.3325,-1.1025,-3.8850000000000002,0.97565625,0.03521875,-0.13465625,1.1673437500000001,0.93140625,-0.4746875,-0.85803125,1.11996875,0.020834024949246032,0.029100253062076264,True
58563,78297,0,78298,3464.0,39221.0,28780.0,-0.00061,-0.002562,0.0006709999999999999,0.2625,-1.0850000000000002,-3.8325000000000005,0.97865625,0.031625,-0.142125,1.16678125,0.93865625,-0.47790625000000003,-0.86471875,1.115,0.02081596541779385,0.029061006370723574,True
58564,78298,0,78299,3464.0,39221.0,28776.0,-0.001647,0.0011589999999999999,-0.00122,0.35000000000000003,-1.4000000000000001,-3.8325000000000005,0.9763125,0.033875,-0.14009375,1.1718125,0.93184375,-0.47753125,-0.8656875,1.1203750000000001,0.020892885184244227,0.029180522356359543,True
58565,78299,0,78300,3464.0,39219.0,28777.0,-0.0026839999999999998,0.00061,-0.0026839999999999998,0.43750000000000006,-1.5925000000000002,-3.9025000000000003,0.9751875,0.0335,-0.13975,1.16740625,0.9271875,-0.47534375,-0.8625,1.1153125,0.020790055297997604,0.02906988436400201,True
58566,78300,0,78301,3462.0,39217.0,28777.0,-0.006588,0.003538,-0.0015249999999999999,0.6125,-2.345,-3.8675,0.97609375,0.03703125,-0.14121875,1.1666875,0.93578125,-0.4784375,-0.8660625000000001,1.1155,0.02105807407029146,0.029149920700151058,True
58567,78301,0,78302,3462.0,39218.0,28777.0,0.000915,0.004026,0.0068319999999999995,0.385,-2.3275,-3.7800000000000002,0.9762500000000001,0.03359375,-0.14075000000000001,1.16703125,0.9316562500000001,-0.47559375000000004,-0.862625,1.10584375,0.020803887546139713,0.029034544823806813,True
58568,78302,0,78303,3463.0,39218.0,28779.0,0.006588,-0.0042699999999999995,-0.000244,0.1925,-2.5900000000000003,-3.5875000000000004,0.9756875,0.034375,-0.14046875,1.16396875,0.93196875,-0.47621875,-0.86290625,1.11503125,0.02086081004648645,0.029056840448811166,True
58569,78303,0,78304,3464.0,39220.0,28776.0,0.0057339999999999995,-0.001769,-0.00122,0.10500000000000001,-2.1700000000000004,-3.8675,0.9765312500000001,0.04078125,-0.13725,1.1675,0.9304375,-0.47696875,-0.8635,1.11521875,0.021152537525709756,0.029209483781446704,True
58570,78304,0,78305,3463.0,39220.0,28779.0,-0.000976,0.004697,0.000122,0.36750000000000005,-1.8900000000000001,-4.0075,0.97521875,0.03490625,-0.14003125,1.1670625000000001,0.93559375,-0.47421875,-0.86184375,1.1135625,0.020802502633511032,0.029032943302927806,True
58571,78305,0,78306,3465.0,39220.0,28779.0,-0.005673,0.006039,0.001952,0.4025,-1.61,-3.8850000000000002,0.97503125,0.03378125,-0.13440625,1.1628125,0.928625,-0.47471875,-0.86190625,1.11365625,0.020776541099169935,0.029261633950534265,True
58572,78306,0,78307,3464.0,39220.0,28779.0,-0.004392,6.1e-05,0.001586,0.28,-1.6625,-3.8150000000000004,0.9703125,0.0336875,-0.14046875,1.152125,0.9291875,-0.47496875,-0.86178125,1.11315625,0.02078271295034851,0.029012905099066465,True
58573,78307,0,78308,3465.0,39222.0,28780.0,0.0013419999999999999,-0.0034159999999999998,-0.000183,0.21000000000000002,-1.6625,-3.7450000000000006,0.98909375,0.029687500000000002,-0.14465625000000001,1.172375,0.9225625000000001,-0.47018750000000004,-0.8616875,1.11390625,0.020427918666336333,0.02884081179123501,True
58574,78308,0,78309,3466.0,39222.0,28781.0,0.000549,0.00122,-0.000915,0.4025,-1.9600000000000002,-3.8850000000000002,0.9712500000000001,0.0301875,-0.14215625,1.17471875,0.92921875,-0.47446875,-0.8622500000000001,1.10746875,0.0206197019087493,0.028963337992337784,True
58575,78309,0,78310,3466.0,39222.0,28780.0,-0.000976,0.003538,-0.001098,0.43750000000000006,-1.8900000000000001,-3.8675,0.97215625,0.03515625,-0.13784375000000001,1.16440625,0.92875,-0.47240625,-0.8610625000000001,1.1119375,0.020740195909423498,0.02909042000920114,True
58576,78310,0,78311,3464.0,39219.0,28779.0,-0.0006709999999999999,0.000732,-0.001952,0.36750000000000005,-1.8025000000000002,-3.7275000000000005,0.9783437500000001,0.0328125,-0.14215625,1.1528125,0.929,-0.475125,-0.8618750000000001,1.1123125,0.020753213722095397,0.0289486915206516,True
58577,78311,0,78312,3467.0,39222.0,28779.0,0.0028669999999999998,-0.0011589999999999999,-6.1e-05,0.22750000000000004,-1.8200000000000003,-3.8325000000000005,0.97709375,0.029312500000000002,-0.1434375,1.1836875,0.92840625,-0.47459375000000004,-0.862,1.11278125,0.020588952574544777,0.02890203925669697,True
58578,78312,0,78313,3468.0,39223.0,28778.0,0.0030499999999999998,-0.0013419999999999999,-0.000183,0.24500000000000002,-1.6450000000000002,-3.8500000000000005,0.99903125,0.026000000000000002,-0.1381875,1.17803125,0.9282812500000001,-0.476125,-0.8641875,1.12575,0.020514889509675248,0.029198621511360465,True
58579,78313,0,78314,3466.0,39223.0,28779.0,-0.001037,0.000549,0.00122,0.385,-1.1725,-3.7800000000000002,0.97803125,0.038,-0.13493750000000002,1.1555,0.9420937500000001,-0.4809375,-0.86521875,1.116875,0.021197615491645286,0.029369588795594245,True
58580,78314,0,78315,3465.0,39221.0,28779.0,-0.003355,0.00042699999999999997,0.00061,0.42000000000000004,-1.0150000000000001,-3.7275000000000005,0.964,0.03484375,-0.13921875,1.15159375,0.92790625,-0.47375,-0.85703125,1.1145625000000001,0.0207811941365749,0.028877644026778136,True
58581,78315,0,78316,3465.0,39220.0,28780.0,-0.003172,0.000122,-0.000244,0.49000000000000005,-1.1900000000000002,-3.8675,0.9776875,0.0261875,-0.1478125,1.184625,0.9295,-0.47515625,-0.8625625,1.11396875,0.02048378138546102,0.028748042362889987,True
58582,78316,0,78317,3467.0,39222.0,28776.0,-0.000976,0.000122,-0.0006709999999999999,0.385,-1.3125000000000002,-3.8500000000000005,0.9915,0.02275,-0.139875,1.17346875,0.9292812500000001,-0.4761875,-0.86525,1.12371875,0.020384608509801616,0.029172238364786197,True
58583,78317,0,78318,3466.0,39221.0,28777.0,0.00061,-0.001098,-0.000122,0.36750000000000005,-1.2950000000000002,-3.6225000000000005,0.9626875,0.03478125,-0.14215625,1.17971875,0.93965625,-0.47453125,-0.86240625,1.115,0.02080989804452333,0.028969440558473704,True
58584,78318,0,78319,3467.0,39223.0,28776.0,0.000122,0.000366,-0.00122,0.47250000000000003,-1.4175000000000002,-3.6750000000000003,0.97803125,0.03671875,-0.13459375,1.16303125,0.937,-0.4789375,-0.8624375,1.11559375,0.021065303590076162,0.029274834778367967,True
58585,78319,0,78320,3468.0,39221.0,28778.0,-0.000915,0.001464,-0.0017079999999999999,0.5075000000000001,-1.5225000000000002,-3.6750000000000003,0.9783437500000001,0.028625,-0.1389375,1.16996875,0.9309375,-0.4723125,-0.8647812500000001,1.12328125,0.02046956126438807,0.029191640284388188,True
58586,78320,0,78321,3469.0,39223.0,28779.0,0.000366,0.002013,0.0017079999999999999,0.5775,-1.5575,-3.6400000000000006,0.97696875,0.03346875,-0.13984375000000002,1.167,0.9395625,-0.47700000000000004,-0.85828125,1.115375,0.020855037382032114,0.028901334439604506,True
58587,78321,0,78322,3468.0,39220.0,28777.0,0.002745,0.0011589999999999999,0.000732,0.42000000000000004,-1.4875,-3.6750000000000003,0.97621875,0.03425,-0.1405625,1.16690625,0.93178125,-0.47565625,-0.86228125,1.11540625,0.02083320033553748,0.029028661639808294,True
58588,78322,0,78323,3469.0,39220.0,28777.0,0.001586,-0.001769,0.000183,0.35000000000000003,-1.435,-3.7450000000000006,0.97696875,0.029781250000000002,-0.14378125,1.16740625,0.9314687500000001,-0.477375,-0.8645,1.1235,0.020719388823352176,0.02898585332502162,True
58589,78323,0,78324,3470.0,39220.0,28776.0,-0.001647,-0.000488,6.1e-05,0.5075000000000001,-0.9625000000000001,-3.6575,0.9812500000000001,0.030375,-0.14328125,1.17128125,0.9390000000000001,-0.47715625,-0.86765625,1.1208125,0.020734894397710108,0.029129202716882498,True
58590,78324,0,78325,3472.0,39220.0,28776.0,-0.003172,0.0021349999999999997,0.000366,0.6475000000000001,-0.7350000000000001,-3.7625,0.98128125,0.03040625,-0.14090625,1.1729687500000001,0.9375,-0.47715625,-0.8631875,1.1221875000000001,0.020736171098307225,0.029050227369278377,True
58591,78325,0,78326,3471.0,39220.0,28777.0,-0.004575,0.0023179999999999997,0.000549,0.5425000000000001,-0.6125,-3.6925000000000003,0.9728125,0.0303125,-0.1395625,1.16028125,0.9340625,-0.47603125,-0.8629375,1.1154375,0.02068733059000323,0.029094510654664195,True
58592,78326,0,78327,3471.0,39220.0,28776.0,-0.002806,-0.000366,0.001952,0.385,-0.7350000000000001,-3.6925000000000003,0.976,0.03340625,-0.14059375,1.1676250000000001,0.93284375,-0.47090625,-0.86384375,1.1126875,0.020608656453007336,0.02908842282279867,True
58593,78327,0,78328,3471.0,39220.0,28776.0,-0.0017079999999999999,-0.00122,0.002257,0.31500000000000006,-1.225,-3.7975000000000003,0.975875,0.0389375,-0.1401875,1.16771875,0.93171875,-0.4751875,-0.8636875,1.1107500000000001,0.02100596777859209,0.029098660446082263,True
58594,78328,0,78329,3472.0,39220.0,28777.0,-0.0044529999999999995,0.001464,-0.002074,0.29750000000000004,-1.8900000000000001,-3.7275000000000005,0.9723125,0.0330625,-0.13765625,1.17034375,0.93009375,-0.47640625000000003,-0.8643125,1.10965625,0.020814687613709634,0.029224867970912127,True
58595,78329,0,78330,3476.0,39221.0,28776.0,0.002745,0.0018909999999999999,-0.002806,0.3325,-2.4850000000000003,-3.5700000000000003,0.982625,0.02815625,-0.1401875,1.172,0.93634375,-0.48031250000000003,-0.8666875,1.12203125,0.020770517124730332,0.02921579321733142,True
58596,78330,0,78331,3474.0,39222.0,28775.0,0.006771,-0.000305,-0.000366,0.4025,-2.1525000000000003,-3.7975000000000003,0.98203125,0.03025,-0.1398125,1.16775,0.94003125,-0.47703125,-0.8629687500000001,1.11584375,0.020724786630323073,0.02908567586081208,True
58597,78331,0,78332,3475.0,39219.0,28777.0,0.0015249999999999999,-0.0013419999999999999,-0.0008539999999999999,0.22750000000000004,-2.1350000000000002,-3.8675,0.9743437500000001,0.03303125,-0.1405625,1.1715,0.931,-0.4761875,-0.86365625,1.10446875,0.02080465963091678,0.02908235790944866,True
58598,78332,0,78333,3477.0,39223.0,28779.0,-0.001769,-0.000122,0.000122,0.31500000000000006,-1.8725000000000003,-3.7975000000000003,0.98278125,0.0360625,-0.14259375,1.175375,0.9405625,-0.477625,-0.8625625,1.12309375,0.02098600252271207,0.028957946309838337,True
58599,78333,0,78334,3476.0,39220.0,28780.0,0.000488,0.001647,0.000549,0.31500000000000006,-1.8900000000000001,-3.8675,0.98409375,0.0325,-0.1398125,1.16665625,0.9390937500000001,-0.47809375,-0.8626875,1.11615625,0.02085921212716983,0.029074692749928986,True
58600,78334,0,78335,3479.0,39222.0,28779.0,0.001403,0.001769,0.000122,0.28,-2.0475000000000003,-3.99,0.975,0.03246875,-0.1401875,1.16721875,0.93134375,-0.47546875,-0.8637812500000001,1.11590625,0.02075292224995691,0.02910232127303646,True
58601,78335,0,78336,3478.0,39222.0,28782.0,0.002074,-0.001098,-6.1e-05,0.1925,-2.0300000000000002,-3.7975000000000003,0.97521875,0.0325625,-0.14490625000000001,1.17434375,0.93178125,-0.4761875,-0.8638750000000001,1.12175,0.02078550836399664,0.02891619870193202,True
58602,78336,0,78337,3481.0,39222.0,28782.0,0.0011589999999999999,-0.002013,6.1e-05,0.17500000000000002,-1.9600000000000002,-3.6750000000000003,0.9798125,0.029437500000000002,-0.14375000000000002,1.17221875,0.9373750000000001,-0.47703125,-0.86403125,1.12059375,0.020691592245280974,0.028968804083207546,True
58603,78337,0,78338,3482.0,39219.0,28782.0,-0.000976,-6.1e-05,0.001403,0.22750000000000004,-1.9075000000000002,-3.7450000000000006,0.982375,0.03175,-0.14300000000000002,1.1729375,0.9355,-0.47709375,-0.86340625,1.11184375,0.020788568904345515,0.028974559750838645,True
58604,78338,0,78339,3480.0,39219.0,28782.0,0.000366,-0.001037,-0.001098,0.35000000000000003,-1.9775000000000003,-3.7800000000000002,0.9705,0.0319375,-0.13875,1.17021875,0.93575,-0.469375,-0.8631875,1.1168125,0.0204873438737197,0.02913695196965393,True
58605,78339,0,78340,3481.0,39219.0,28784.0,0.00122,-0.000183,-0.001281,0.29750000000000004,-1.9775000000000003,-3.7275000000000005,0.9706250000000001,0.03321875,-0.14103125,1.17265625,0.9344687500000001,-0.47750000000000004,-0.8631562500000001,1.11703125,0.020864824839137985,0.0290439794826934,True
58606,78340,0,78341,3482.0,39219.0,28782.0,0.0026839999999999998,-0.00122,-0.000549,0.24500000000000002,-1.8550000000000002,-3.7450000000000006,0.9816875,0.029750000000000002,-0.14250000000000002,1.17465625,0.9364687500000001,-0.47825,-0.8655625,1.1225,0.020753117563551318,0.029078871632202165,True
58607,78341,0,78342,3483.0,39221.0,28783.0,0.0023179999999999997,0.001098,0.0008539999999999999,0.29750000000000004,-1.5225000000000002,-3.99,0.9834375000000001,0.028375,-0.1425625,1.1729375,0.9393750000000001,-0.4799375,-0.86603125,1.1234375,0.020764452523622665,0.029094661014712593,True
58608,78342,0,78343,3482.0,39221.0,28785.0,-0.005612,0.006344,0.0023179999999999997,0.385,-1.435,-4.0600000000000005,0.984,0.02815625,-0.14225000000000002,1.16784375,0.94065625,-0.478625,-0.8666875,1.11940625,0.020703011300675592,0.029132850927571275,True
58609,78343,0,78344,3483.0,39222.0,28784.0,-0.0044529999999999995,0.002562,0.0018909999999999999,0.21000000000000002,-1.54,-3.9025000000000003,0.97603125,0.030875,-0.14065625,1.161375,0.93275,-0.4743125,-0.85990625,1.1148125,0.020641539981970894,0.02893212841460333,True
58610,78344,0,78345,3486.0,39219.0,28785.0,-0.002196,-0.0023179999999999997,0.00122,0.12250000000000001,-1.7850000000000001,-3.7100000000000004,0.969,0.03221875,-0.139625,1.1729687500000001,0.919125,-0.47109375000000003,-0.861125,1.10975,0.020567634006959743,0.029021212837311263,True
58611,78345,0,78346,3484.0,39218.0,28785.0,0.0011589999999999999,-0.003904,0.001464,0.052500000000000005,-1.995,-3.7275000000000005,0.984375,0.029531250000000002,-0.14275000000000002,1.17353125,0.9344687500000001,-0.47678125,-0.8593125,1.12090625,0.02068541998347924,0.02882471106149858,True
58612,78346,0,78347,3487.0,39219.0,28784.0,0.004758,-0.005124,-0.002745,-0.07,-2.205,-3.7800000000000002,0.9803437500000001,0.03209375,-0.14440625,1.1725625,0.94321875,-0.48428125,-0.869125,1.131875,0.021090061608404376,0.02914130473026293,True
58613,78347,0,78348,3487.0,39220.0,28784.0,0.0048189999999999995,-0.0035989999999999998,-0.003843,0.15750000000000003,-2.0125,-3.4825000000000004,0.98103125,0.02790625,-0.14296875,1.1750625000000001,0.9472812500000001,-0.4770625,-0.8659687500000001,1.12071875,0.020630283964834423,0.02907588307815275,True
58614,78348,0,78349,3489.0,39218.0,28786.0,0.0035989999999999998,-0.003111,-0.000366,0.29750000000000004,-1.7500000000000002,-3.5000000000000004,0.9831562500000001,0.030625,-0.14321875,1.17390625,0.9435625,-0.483125,-0.86475,1.12715625,0.02098384091083144,0.02901823867121125,True
58615,78349,0,78350,3488.0,39220.0,28786.0,-0.0013419999999999999,-0.002257,-0.0030499999999999998,0.35000000000000003,-1.9775000000000003,-3.6050000000000004,0.983375,0.031531250000000004,-0.139875,1.16778125,0.9306875,-0.4738125,-0.856,1.11053125,0.020648346063777353,0.02881095107821049,True
58616,78350,0,78351,3489.0,39220.0,28789.0,6.1e-05,0.000915,-0.002806,0.5075000000000001,-1.8725000000000003,-3.7275000000000005,0.97590625,0.02921875,-0.14300000000000002,1.17471875,0.9226562500000001,-0.48378125,-0.870125,1.12171875,0.020952645948019162,0.029236885620800054,True
58617,78351,0,78352,3491.0,39220.0,28788.0,0.000183,0.0042699999999999995,0.0011589999999999999,0.525,-1.1725,-3.9200000000000004,0.9755625,0.03003125,-0.1400625,1.1553125,0.92696875,-0.47459375000000004,-0.85353125,1.11565625,0.020618319762713118,0.028706936765776493,True
58618,78352,0,78353,3489.0,39219.0,28788.0,-0.006588,0.00549,0.0037819999999999998,0.6475000000000001,-0.43750000000000006,-3.6925000000000003,0.97590625,0.03090625,-0.13971875,1.1673125,0.9264687500000001,-0.47428125,-0.8615,1.10715625,0.020641566338133015,0.029032087766224887,True
58619,78353,0,78354,3493.0,39220.0,28790.0,-0.008052,0.002562,0.004758,0.47250000000000003,-0.36750000000000005,-3.6225000000000005,0.967125,0.0316875,-0.1400625,1.16671875,0.92553125,-0.4733125,-0.85690625,1.1159375,0.020634722005858423,0.028838816174076368,True
58620,78354,0,78355,3492.0,39220.0,28791.0,-0.0066489999999999995,0.000122,0.0059169999999999995,0.29750000000000004,-0.805,-3.5875000000000004,0.97590625,0.031375,-0.14071875,1.1731562500000001,0.9208125,-0.48078125,-0.8683125,1.12771875,0.020920747780465543,0.0292578658081444,True
58621,78355,0,78356,3493.0,39220.0,28789.0,-0.000488,-0.001037,0.002562,0.1925,-1.4700000000000002,-3.6050000000000004,0.98390625,0.028,-0.1409375,1.16765625,0.9430937500000001,-0.48134375,-0.86746875,1.1184687500000001,0.02080538369140787,0.02921613201987034,True
58622,78356,0,78357,3491.0,39219.0,28788.0,0.003965,-0.0011589999999999999,-0.0021349999999999997,0.15750000000000003,-2.0650000000000004,-3.5700000000000003,0.9694375000000001,0.0321875,-0.1399375,1.1718125,0.92478125,-0.47365625,-0.86346875,1.12434375,0.02066890802227395,0.029100173321552326,True
58623,78357,0,78358,3491.0,39219.0,28787.0,0.008539999999999999,-0.0018909999999999999,-0.003172,0.31500000000000006,-2.2750000000000004,-3.6225000000000005,0.98175,0.029406250000000002,-0.1394375,1.1675312500000001,0.93334375,-0.4754375,-0.86328125,1.1164687500000001,0.02062654651219207,0.02911296150824823,True
58624,78358,0,78359,3489.0,39217.0,28787.0,0.0044529999999999995,-0.002013,-0.001647,0.29750000000000004,-2.1,-3.6225000000000005,0.97575,0.031,-0.13928125,1.16678125,0.9314687500000001,-0.4766875,-0.8635625,1.11571875,0.020741675114330727,0.029130228220513452,True
58625,78359,0,78360,3487.0,39217.0,28784.0,0.0017079999999999999,-0.0028669999999999998,-0.0023179999999999997,0.2625,-1.7850000000000001,-3.5700000000000003,0.9751875,0.0273125,-0.13678125,1.17309375,0.93134375,-0.4774375,-0.86740625,1.12365625,0.020621031102622568,0.029380828569525626,True
58626,78360,0,78361,3485.0,39216.0,28782.0,-0.000549,-0.0011589999999999999,-0.000305,0.24500000000000002,-1.4525000000000001,-3.6050000000000004,0.9832500000000001,0.0319375,-0.1396875,1.168375,0.9395,-0.47934375,-0.8628125,1.11525,0.020886231886833157,0.02908460175211473,True
58627,78361,0,78362,3480.0,39215.0,28782.0,-0.003172,0.000122,-0.000366,0.43750000000000006,-1.3650000000000002,-3.7975000000000003,0.9753437500000001,0.03115625,-0.13796875,1.1729687500000001,0.9315625000000001,-0.47684375,-0.86665625,1.12321875,0.02075430987706493,0.029303799138655807,True
58628,78362,0,78363,3478.0,39212.0,28779.0,-0.005307,0.00244,0.003721,0.56,-0.8750000000000001,-3.9375000000000004,0.98246875,0.03496875,-0.1391875,1.16771875,0.93871875,-0.47646875,-0.86246875,1.11503125,0.020895068860780828,0.0290912884505888,True
58629,78363,0,78364,3475.0,39209.0,28775.0,-0.0055509999999999995,0.001037,0.0026839999999999998,0.5075000000000001,-0.8925000000000001,-4.0075,0.9623125,0.03084375,-0.14059375,1.16671875,0.93078125,-0.47646875,-0.8630625000000001,1.1153125,0.020726539648412312,0.029057914727922195,True
58630,78364,0,78365,3472.0,39209.0,28773.0,-0.00488,0.0,0.001586,0.36750000000000005,-1.1375000000000002,-3.8850000000000002,0.9762500000000001,0.03040625,-0.1391875,1.16609375,0.9314375,-0.4764375,-0.863125,1.11490625,0.020707415039463977,0.0291169151102285,True
58631,78365,0,78366,3470.0,39206.0,28772.0,-0.004331,0.00042699999999999997,-0.000549,0.36750000000000005,-1.7500000000000002,-3.8325000000000005,0.9751562500000001,0.0311875,-0.14059375,1.168125,0.931875,-0.47646875,-0.86340625,1.1162812500000001,0.020740583749443025,0.029071338525870728,True
58632,78366,0,78367,3468.0,39206.0,28769.0,0.0037819999999999998,0.001586,-0.0013419999999999999,0.24500000000000002,-2.2925000000000004,-3.8325000000000005,0.9773125,0.029562500000000002,-0.14240625,1.168875,0.919125,-0.47040625,-0.85775,1.1164375,0.02043156721192563,0.028777493940521565,True
58633,78367,0,78368,3467.0,39206.0,28769.0,0.009637999999999999,0.000305,-0.0028669999999999998,0.15750000000000003,-2.7300000000000004,-3.9375000000000004,0.9768125,0.031468750000000004,-0.14403125,1.176125,0.93296875,-0.47678125,-0.864625,1.12240625,0.020764576633212344,0.028980680384280876,True
58634,78368,0,78369,3465.0,39207.0,28770.0,0.008723,-0.001464,-0.0037819999999999998,0.21000000000000002,-2.4325,-3.8325000000000005,0.97684375,0.025468750000000002,-0.145375,1.18040625,0.9392812500000001,-0.479875,-0.8665,1.12128125,0.020643232451146094,0.028999859248386387,True
58635,78369,0,78370,3464.0,39207.0,28769.0,0.002928,-0.001586,-0.001037,0.29750000000000004,-1.8025000000000002,-3.7800000000000002,0.98784375,0.031625,-0.1400625,1.1703125,0.9386875,-0.47881250000000003,-0.8663125,1.12109375,0.02085221658526123,0.029206180047805643,True
58636,78370,0,78371,3464.0,39206.0,28769.0,-0.000976,-0.000549,-0.000488,0.31500000000000006,-1.2075,-3.7800000000000002,0.9741562500000001,0.0319375,-0.13871875,1.1663125,0.93784375,-0.47825,-0.86321875,1.1150625,0.020842482612114837,0.029139429101471426,True
58637,78371,0,78372,3464.0,39204.0,28770.0,-0.0044529999999999995,-0.001037,0.0018909999999999999,0.3325,-0.7000000000000001,-3.7450000000000006,0.9726250000000001,0.036000000000000004,-0.13940625,1.15278125,0.93171875,-0.4764375,-0.8631875,1.1129375,0.020935951157107727,0.029110557526061374,True
58638,78372,0,78373,3462.0,39204.0,28769.0,-0.008357,-0.001098,0.0050019999999999995,0.3325,-0.805,-3.6750000000000003,0.973,0.03096875,-0.13871875,1.16403125,0.9312812500000001,-0.4760625,-0.8640625000000001,1.10340625,0.020715392845560843,0.02917237478790926,True
58639,78373,0,78374,3461.0,39204.0,28771.0,-0.0062829999999999995,0.000244,0.001037,0.31500000000000006,-1.4700000000000002,-3.8675,0.9729375,0.03084375,-0.13478125,1.1573437500000001,0.93159375,-0.4766875,-0.86428125,1.11565625,0.02073529148909549,0.02933927559237209,True
58640,78374,0,78375,3462.0,39204.0,28770.0,-6.1e-05,0.001281,-0.0008539999999999999,0.31500000000000006,-1.6625,-4.077500000000001,0.97303125,0.031343750000000004,-0.1393125,1.1653125,0.93103125,-0.47625,-0.862,1.1155625,0.020738215617179923,0.029067955112219452,True
58641,78375,0,78376,3462.0,39205.0,28770.0,0.002074,0.000732,0.0,0.35000000000000003,-1.715,-3.9025000000000003,0.9734375000000001,0.03125,-0.13878125,1.17540625,0.932125,-0.4761875,-0.8624375,1.121125,0.020731884816620232,0.02910640801007544,True
58642,78376,0,78377,3460.0,39205.0,28771.0,0.000915,0.00122,-0.0021349999999999997,0.24500000000000002,-1.9600000000000002,-3.5525,0.98684375,0.03734375,-0.14075000000000001,1.1645625,0.9374687500000001,-0.47621875,-0.863625,1.11478125,0.020982101248788684,0.02907359646873696,True
58643,78377,0,78378,3460.0,39203.0,28771.0,0.0030499999999999998,0.001037,-0.0018909999999999999,0.15750000000000003,-2.2925000000000004,-3.8500000000000005,0.97209375,0.031843750000000004,-0.13784375000000001,1.165125,0.931,-0.47725,-0.8628125,1.11753125,0.020798649766620023,0.029158758688302054,True
58644,78378,0,78379,3460.0,39204.0,28772.0,0.003965,-0.000305,-0.000122,0.24500000000000002,-2.2750000000000004,-3.8500000000000005,0.9730625,0.03353125,-0.1383125,1.16003125,0.93559375,-0.47753125,-0.86421875,1.119625,0.020878841692827988,0.029194814335358917,True
58645,78379,0,78380,3462.0,39204.0,28775.0,0.004148,-0.000183,-0.000122,0.22750000000000004,-2.1700000000000004,-3.7275000000000005,0.96203125,0.0320625,-0.13493750000000002,1.1649375,0.93596875,-0.4774375,-0.8575625,1.11590625,0.020815087363618028,0.02907062991393464,True
58646,78380,0,78381,3459.0,39204.0,28775.0,0.00122,-0.002013,0.000183,0.15750000000000003,-1.9250000000000003,-3.8150000000000004,0.9725625,0.031656250000000004,-0.139,1.16475,0.93184375,-0.470625,-0.86253125,1.1154375,0.020525885628176643,0.029101270611776503,True
58647,78381,0,78382,3462.0,39205.0,28775.0,-0.0021349999999999997,-0.001647,0.001281,0.12250000000000001,-1.715,-3.7975000000000003,0.9650625,0.0318125,-0.13915625,1.16671875,0.931875,-0.47625,-0.86309375,1.1163750000000001,0.020757366835197383,0.029116951706784275,True
58648,78382,0,78383,3460.0,39207.0,28776.0,-0.002013,-0.0013419999999999999,0.00122,0.24500000000000002,-1.6625,-3.8150000000000004,0.9735,0.0309375,-0.1393125,1.1683125,0.9314687500000001,-0.47675,-0.8634375,1.11596875,0.020741622151633693,0.02912409034350137,True
58649,78383,0,78384,3460.0,39205.0,28777.0,-0.0006709999999999999,-0.000915,0.000488,0.21000000000000002,-1.7675,-3.7625,0.975375,0.0331875,-0.1424375,1.1668125,0.9246562500000001,-0.4761875,-0.86659375,1.12425,0.020811043386556833,0.02912165040698427,True
58650,78384,0,78385,3460.0,39207.0,28779.0,-0.00122,0.00042699999999999997,-0.000732,0.3325,-2.0125,-3.8325000000000005,0.9824375000000001,0.03034375,-0.14078125,1.17221875,0.93921875,-0.4789375,-0.8625,1.11209375,0.020804875620112188,0.029028406234288588,True
58651,78385,0,78386,3459.0,39207.0,28777.0,6.1e-05,0.0028669999999999998,-0.00122,0.4025,-2.0300000000000002,-3.9375000000000004,0.97528125,0.031343750000000004,-0.13265625,1.16696875,0.9323125,-0.476125,-0.8573125,1.1166562500000001,0.020733214510058273,0.02915263868529633,True
58652,78386,0,78387,3460.0,39209.0,28778.0,0.004026,0.000732,-0.001403,0.3325,-2.1875,-3.7975000000000003,0.975875,0.031343750000000004,-0.14,1.16696875,0.93159375,-0.4766875,-0.86453125,1.1054375,0.020755719089848246,0.029139147756907742,True
58653,78387,0,78388,3460.0,39210.0,28778.0,0.004575,0.000122,-0.0015249999999999999,0.15750000000000003,-2.1525000000000003,-3.8675,0.97571875,0.03071875,-0.1408125,1.16940625,0.9320625,-0.46818750000000003,-0.8719687500000001,1.13815625,0.02038999619403767,0.029396798353568215,True
58654,78388,0,78389,3461.0,39209.0,28780.0,0.0032329999999999998,0.000305,0.000366,0.35000000000000003,-1.9425000000000001,-3.9725000000000006,0.9829375,0.02815625,-0.142875,1.17415625,0.9516875,-0.487375,-0.87215625,1.13359375,0.02105294054589355,0.029321191241712306,True
58655,78389,0,78390,3460.0,39209.0,28781.0,0.000732,0.001037,0.0011589999999999999,0.24500000000000002,-1.4875,-3.8500000000000005,0.97884375,0.03078125,-0.14040625,1.1676250000000001,0.9556250000000001,-0.48925,-0.87503125,1.131625,0.02123508274038609,0.029532626215293702,True
58656,78390,0,78391,3463.0,39209.0,28779.0,-0.00122,0.000183,0.000915,0.28,-1.1375000000000002,-3.8850000000000002,0.9759375,0.035312500000000004,-0.1399375,1.16778125,0.94203125,-0.47909375,-0.86553125,1.1116875,0.021014105148398313,0.02918070572089627,True
58657,78391,0,78392,3461.0,39211.0,28781.0,-0.004331,-0.001586,0.000122,0.2625,-0.6825000000000001,-3.9200000000000004,0.97540625,0.030875,-0.13934375000000002,1.1675312500000001,0.92721875,-0.47565625,-0.8595,1.1040625,0.02069530822079592,0.028969056095255335,True
58658,78392,0,78393,3462.0,39212.0,28782.0,-0.005307,-0.001037,0.00042699999999999997,0.3325,-0.8400000000000001,-3.8325000000000005,0.975375,0.03046875,-0.1383125,1.17575,0.91803125,-0.472125,-0.8580625000000001,1.10534375,0.020537397140624285,0.0289543885409412,True
58659,78393,0,78394,3461.0,39215.0,28782.0,-0.004209,-0.001037,-0.000488,0.385,-1.0150000000000001,-3.7275000000000005,0.9835,0.030375,-0.14028125,1.1676875,0.94215625,-0.47921875,-0.86753125,1.10828125,0.02081740251616486,0.02924496174102526,True
58660,78394,0,78395,3464.0,39213.0,28784.0,-0.001098,0.001403,-6.1e-05,0.43750000000000006,-1.3475000000000001,-3.9375000000000004,0.9760625,0.0311875,-0.1434375,1.17446875,0.9094375,-0.47253125,-0.8571875,1.1245,0.020583026122399987,0.028714028890034323,True
58661,78395,0,78396,3462.0,39213.0,28783.0,0.001647,0.00122,-0.000793,0.22750000000000004,-1.7850000000000001,-4.0600000000000005,0.98446875,0.02665625,-0.1413125,1.17259375,0.9566250000000001,-0.4888125,-0.8699687500000001,1.13503125,0.02104915254669862,0.029298639548953995,True
58662,78396,0,78397,3463.0,39214.0,28783.0,0.0028669999999999998,0.00042699999999999997,-6.1e-05,0.2625,-1.9425000000000001,-3.6750000000000003,0.982875,0.02778125,-0.14171875,1.171,0.9569375,-0.48834375,-0.8691875,1.12709375,0.02107635392859103,0.02925181009632904,True
58663,78397,0,78398,3464.0,39214.0,28784.0,0.002989,0.0028669999999999998,0.001769,0.24500000000000002,-1.7500000000000002,-3.8325000000000005,0.97584375,0.03046875,-0.14028125,1.15984375,0.9309375,-0.48053125,-0.8665,1.12103125,0.020873730017603277,0.02920470311463214,True
58664,78398,0,78399,3465.0,39217.0,28784.0,0.003355,0.001952,0.000305,0.17500000000000002,-1.7500000000000002,-3.8850000000000002,0.96796875,0.03071875,-0.1406875,1.1674375000000001,0.9336875,-0.480125,-0.86221875,1.1074375,0.02086769369028957,0.029021193050197906,True
58665,78399,0,78400,3466.0,39218.0,28783.0,0.00183,-0.000183,0.000549,0.14,-1.5575,-3.9725000000000006,0.975875,0.029906250000000002,-0.13809375000000002,1.1673437500000001,0.91840625,-0.47559375000000004,-0.8600625000000001,1.107375,0.02065322725827642,0.0290413087255915,True
58666,78400,0,78401,3465.0,39214.0,28785.0,-0.000793,-0.0008539999999999999,0.000488,0.17500000000000002,-1.3475000000000001,-3.8850000000000002,0.975375,0.03053125,-0.140625,1.17384375,0.9194687500000001,-0.4748125,-0.86140625,1.10771875,0.020647502406811083,0.028991974257288843,True
58667,78401,0,78402,3465.0,39217.0,28785.0,-0.003172,0.003843,0.00122,0.6300000000000001,-0.8925000000000001,-4.305000000000001,0.98271875,0.02828125,-0.14059375,1.1731875,0.9304687500000001,-0.47778125,-0.8648750000000001,1.1202812500000001,0.02067436157025057,0.029128690572544604,True
58668,78402,0,78403,3468.0,39217.0,28786.0,-0.002196,-0.0011589999999999999,0.0011589999999999999,0.1925,-0.8750000000000001,-4.235,0.9756250000000001,0.035812500000000004,-0.1400625,1.1671875,0.9382812500000001,-0.47746875,-0.8630625000000001,1.110125,0.02096953958934173,0.02907928176587257,True
58669,78403,0,78404,3468.0,39217.0,28788.0,-0.00042699999999999997,-0.005429,0.000915,0.36750000000000005,-1.0325000000000002,-3.5525,0.9750625,0.03096875,-0.13921875,1.1676250000000001,0.9350937500000001,-0.47865625,-0.86540625,1.12190625,0.020819157505837356,0.029204730970361685,True
58670,78404,0,78405,3469.0,39216.0,28786.0,-0.00122,-0.001098,-0.00122,0.665,-1.2425000000000002,-3.9375000000000004,0.9765625,0.02803125,-0.14134375,1.1720625,0.9395625,-0.478625,-0.865,1.120125,0.02069790480470206,0.0291034084053891,True
58671,78405,0,78406,3469.0,39216.0,28786.0,-0.000244,0.000793,0.000244,0.3325,-1.2775,-4.41,0.9793437500000001,0.03021875,-0.14040625,1.16803125,0.931625,-0.4766875,-0.8629687500000001,1.1160625,0.020709756988154544,0.029061794963644475,True
58672,78406,0,78407,3471.0,39220.0,28787.0,-0.000732,-0.0008539999999999999,0.000244,0.45500000000000007,-1.61,-3.7100000000000004,0.975875,0.0315625,-0.14178125,1.17221875,0.9314687500000001,-0.47925,-0.8645,1.11765625,0.020867163005402534,0.029066289287940642,True
58673,78407,0,78408,3471.0,39218.0,28789.0,0.00061,-0.000915,-0.000183,0.24500000000000002,-1.7500000000000002,-3.7975000000000003,0.97565625,0.0301875,-0.13984375000000002,1.1679375,0.92178125,-0.47628125,-0.864,1.11546875,0.020692226275182225,0.0291246883043758,True
58674,78408,0,78409,3471.0,39219.0,28789.0,0.0008539999999999999,-0.000915,-0.0013419999999999999,0.31500000000000006,-2.0300000000000002,-3.8325000000000005,0.97603125,0.030375,-0.14009375,1.168875,0.93003125,-0.47590625000000003,-0.86359375,1.11534375,0.020684882709909872,0.029098770164711206,True
58675,78409,0,78410,3473.0,39219.0,28790.0,0.002562,-0.0006709999999999999,-0.002013,0.21000000000000002,-2.1175,-3.8150000000000004,0.96996875,0.03071875,-0.14034375,1.1791875,0.93196875,-0.47996875,-0.86390625,1.12346875,0.020861444114384335,0.029100918123032258,True
58676,78410,0,78411,3474.0,39221.0,28792.0,0.0025009999999999998,0.0008539999999999999,6.1e-05,0.22750000000000004,-2.1175,-3.8675,0.9866875,0.0275625,-0.1455,1.17884375,0.9262812500000001,-0.47831250000000003,-0.86284375,1.1225,0.020666253035212294,0.028852039501716293,True
58677,78411,0,78412,3474.0,39221.0,28791.0,0.001464,0.001403,-0.00042699999999999997,0.35000000000000003,-1.9075000000000002,-3.9375000000000004,0.99453125,0.03340625,-0.1445625,1.1811562500000001,0.93878125,-0.47878125,-0.86484375,1.1195625,0.020923733692828354,0.02896785747949854,True
58678,78412,0,78413,3474.0,39223.0,28793.0,-0.0008539999999999999,-0.000244,-0.001403,0.31500000000000006,-1.8025000000000002,-3.7800000000000002,0.9812500000000001,0.03203125,-0.13740625,1.16215625,0.9335625000000001,-0.4789375,-0.8654375,1.11659375,0.020873812435690885,0.029278843374463046,True
58679,78413,0,78414,3476.0,39220.0,28794.0,-0.000976,-0.0006709999999999999,0.000183,0.3325,-1.7325000000000002,-3.6400000000000006,0.9782500000000001,0.02690625,-0.14353125,1.17615625,0.93603125,-0.4809375,-0.8678125,1.10996875,0.020744456783977332,0.029125249758095932,True
58680,78414,0,78415,3477.0,39222.0,28795.0,0.001647,-0.0006709999999999999,0.002196,0.28,-1.6275000000000002,-3.5875000000000004,0.98546875,0.029906250000000002,-0.14253125,1.1740625,0.9373750000000001,-0.4795625,-0.8663125,1.11134375,0.02081200389100091,0.029106899143168094,True
58681,78415,0,78416,3478.0,39226.0,28798.0,0.003538,0.000122,0.000366,0.45500000000000007,-1.4525000000000001,-3.6050000000000004,0.9742500000000001,0.0301875,-0.13953125,1.17875,0.9380937500000001,-0.4809375,-0.86440625,1.1175625,0.020878489641174895,0.029153119230426024,True
58682,78416,0,78417,3478.0,39224.0,28797.0,0.001647,0.002745,-0.00122,0.5075000000000001,-0.77,-3.6750000000000003,0.9881562500000001,0.02271875,-0.14796875,1.16403125,0.93215625,-0.476875,-0.86371875,1.1149375,0.0204108469729081,0.028786924723398426,True
58683,78417,0,78418,3479.0,39222.0,28798.0,-0.0046359999999999995,0.001098,-0.000732,0.525,-0.49000000000000005,-3.6750000000000003,0.9689375,0.041875,-0.136,1.16215625,0.926625,-0.476625,-0.8641562500000001,1.1106875,0.02118347607155807,0.029285379430480374,True
58684,78418,0,78419,3482.0,39223.0,28797.0,-0.0053679999999999995,0.000549,0.000305,0.6125,-0.31500000000000006,-3.5875000000000004,0.99109375,0.0226875,-0.14675,1.1675625,0.9371875000000001,-0.47275,-0.85646875,1.1151875,0.020244455567927592,0.028552678062928785,True
58685,78419,0,78420,3482.0,39223.0,28799.0,-0.004575,-6.1e-05,0.003111,0.6125,-0.21000000000000002,-3.5875000000000004,0.9700625,0.032625,-0.13371875,1.16303125,0.9313125,-0.47628125,-0.865125,1.1238125,0.02079181248172657,0.029414943620834404,True
58686,78420,0,78421,3482.0,39222.0,28798.0,-0.003538,0.000915,0.0035989999999999998,0.47250000000000003,-0.2625,-3.6750000000000003,0.9893125,0.022375,-0.145625,1.18475,0.9342812500000001,-0.47740625000000003,-0.8636875,1.11625,0.020418064107589014,0.02887996802565991,True
58687,78421,0,78422,3485.0,39222.0,28797.0,-0.0028669999999999998,-0.00122,0.0025009999999999998,0.43750000000000006,-0.6475000000000001,-3.4650000000000003,0.985625,0.03115625,-0.13703125,1.1609375,0.931625,-0.47590625000000003,-0.8630625000000001,1.1125625000000001,0.020716801854885353,0.029201199570648227,True
58688,78422,0,78423,3484.0,39221.0,28796.0,0.000244,-0.002623,0.0006709999999999999,0.525,-0.9625000000000001,-3.3775000000000004,0.96878125,0.03315625,-0.13725,1.16215625,0.9392812500000001,-0.4804375,-0.865,1.10896875,0.02097976190172255,0.029268047456263827,True
58689,78423,0,78424,3485.0,39223.0,28797.0,0.0030499999999999998,-0.000488,-0.0021349999999999997,0.43750000000000006,-1.2075,-3.5000000000000004,0.9687187500000001,0.03109375,-0.1393125,1.17478125,0.93159375,-0.476375,-0.8631562500000001,1.115875,0.020733002742440415,0.02911310787422655,True
58690,78424,0,78425,3485.0,39225.0,28800.0,0.0037819999999999998,-0.000244,-0.0032329999999999998,0.4025,-1.435,-3.5700000000000003,0.9832500000000001,0.0321875,-0.1408125,1.17253125,0.9306875,-0.47009375000000003,-0.86471875,1.12390625,0.020526331248730913,0.029113792006997864,True
58691,78425,0,78426,3488.0,39224.0,28797.0,0.003538,-6.1e-05,-0.004392,0.36750000000000005,-1.4175000000000002,-3.5000000000000004,0.98075,0.02878125,-0.1373125,1.17475,0.9383750000000001,-0.4743125,-0.8665625,1.1220937500000001,0.020555991102916577,0.02932653035577394,True
58692,78426,0,78427,3486.0,39224.0,28799.0,0.000549,-0.0030499999999999998,-0.002074,0.28,-1.0325000000000002,-3.4475000000000002,0.98121875,0.02709375,-0.14084375,1.16509375,0.93734375,-0.4769375,-0.86471875,1.12021875,0.020592087960350437,0.029112535206134195,True
58693,78427,0,78428,3488.0,39222.0,28798.0,-0.002074,-0.002074,-0.0008539999999999999,0.29750000000000004,-0.77,-3.535,0.98065625,0.0278125,-0.1411875,1.16678125,0.9404375,-0.47871875,-0.86609375,1.12353125,0.02069271905826362,0.02915239752926613,True
58694,78428,0,78429,3487.0,39223.0,28800.0,-0.0053679999999999995,-0.000244,0.001464,0.43750000000000006,-0.6125,-3.6050000000000004,0.977875,0.03096875,-0.1353125,1.16809375,0.9400000000000001,-0.47821875,-0.86084375,1.1148125,0.020801656574786515,0.029183693735253854,True
58695,78429,0,78430,3489.0,39222.0,28798.0,-0.0055509999999999995,0.001769,0.0050019999999999995,0.4025,-0.7875000000000001,-3.6925000000000003,0.9753125,0.03496875,-0.13990625,1.16796875,0.931125,-0.47646875,-0.86309375,1.11590625,0.020895068860780828,0.029086786514650857,True
58696,78430,0,78431,3488.0,39221.0,28798.0,-0.0055509999999999995,0.0021349999999999997,0.002989,0.42000000000000004,-1.12,-3.8325000000000005,0.97540625,0.03034375,-0.1381875,1.16765625,0.929875,-0.47675,-0.86328125,1.11534375,0.020717364437680658,0.029163236449332285,True
58697,78431,0,78432,3486.0,39219.0,28797.0,-0.0017079999999999999,0.003965,0.0017079999999999999,0.28,-2.1,-3.9025000000000003,0.96303125,0.029687500000000002,-0.13678125,1.16828125,0.9313125,-0.47609375,-0.8631875,1.1160625,0.020664296156326006,0.029216135300431614,True
58698,78432,0,78433,3485.0,39218.0,28798.0,0.001769,0.003721,0.0017079999999999999,0.1925,-2.4325,-4.025,0.975,0.03121875,-0.14,1.16428125,0.9313125,-0.4759375,-0.86028125,1.11534375,0.02072060569692172,0.028973173825215675,True
58699,78433,0,78434,3483.0,39218.0,28795.0,0.004758,0.002257,-0.000366,0.052500000000000005,-2.8350000000000004,-4.1475,0.9799375,0.03071875,-0.14125000000000001,1.17009375,0.93125,-0.476625,-0.86434375,1.1155,0.020727684065920036,0.029081553781205263,True
58700,78434,0,78435,3479.0,39214.0,28792.0,0.005795,0.001037,-0.000183,0.12250000000000001,-3.0625000000000004,-4.0600000000000005,0.97565625,0.02871875,-0.14321875,1.176625,0.93121875,-0.4770625,-0.8645,1.10765625,0.02066347830749707,0.029008475939592597,True
58701,78435,0,78436,3476.0,39214.0,28788.0,0.0053679999999999995,-0.0011589999999999999,-0.001769,0.052500000000000005,-2.8875,-4.0075,0.982,0.027625,-0.13975,1.1676875,0.93721875,-0.47775,-0.86721875,1.115625,0.020646301232752195,0.02925412597659318,True
58702,78436,0,78437,3473.0,39210.0,28786.0,0.0025009999999999998,-0.002013,-0.001281,0.035,-2.5025000000000004,-3.9200000000000004,0.97559375,0.03053125,-0.13934375000000002,1.1672500000000001,0.931875,-0.47675,-0.8636875,1.11615625,0.02072502476840267,0.02913259547683746,True
58703,78437,0,78438,3470.0,39209.0,28786.0,0.000122,-0.002989,0.0,0.0,-2.1875,-3.9375000000000004,0.98246875,0.03021875,-0.13940625,1.167375,0.9305,-0.4791875,-0.86703125,1.12390625,0.020809769523600405,0.029260629975683163,True
58704,78438,0,78439,3468.0,39211.0,28782.0,0.0,-0.005978,-0.00061,0.0,-2.1175,-3.9550000000000005,0.975375,0.03028125,-0.13959375000000002,1.176,0.9310625,-0.4771875,-0.8636875,1.11521875,0.020732314527557548,0.02912254065290999,True
58705,78439,0,78440,3466.0,39208.0,28780.0,-0.000976,-0.000305,0.003721,0.47250000000000003,-1.4700000000000002,-4.6375,0.98328125,0.0309375,-0.14,1.1706875,0.9310625,-0.47800000000000004,-0.8637812500000001,1.1159375,0.02079162921807337,0.029109862362547936,True
58706,78440,0,78441,3463.0,39209.0,28780.0,-0.003904,0.000793,0.000366,0.21000000000000002,-1.4000000000000001,-4.952500000000001,0.9823437500000001,0.03346875,-0.13996875,1.1676875,0.9254687500000001,-0.47881250000000003,-0.867,1.1170625,0.020927536823937026,0.029236789721317408,True
58707,78441,0,78442,3460.0,39206.0,28778.0,-0.0032329999999999998,-0.0030499999999999998,-0.002257,0.22750000000000004,-1.8375000000000001,-3.8325000000000005,0.9752500000000001,0.029375000000000002,-0.14028125,1.17390625,0.9322812500000001,-0.47675,-0.8639687500000001,1.1079375,0.0206777860622836,0.02910587232780366,True
58708,78442,0,78443,3459.0,39205.0,28779.0,-6.1e-05,0.0,-0.0021349999999999997,0.1925,-1.9425000000000001,-4.0075,0.981875,0.029562500000000002,-0.13934375000000002,1.168125,0.9375,-0.47234375,-0.86584375,1.11534375,0.020509120627238656,0.029216784570199838,True
58709,78443,0,78444,3457.0,39205.0,28775.0,-0.000976,0.004148,0.001037,0.17500000000000002,-2.0475000000000003,-4.2875000000000005,0.9758125,0.02825,-0.1413125,1.17084375,0.9311875000000001,-0.476375,-0.8647812500000001,1.12078125,0.020616819279815738,0.029096123658839755,True
58710,78444,0,78445,3457.0,39204.0,28776.0,-0.001464,0.00061,-0.0046359999999999995,0.07,-2.31,-4.2700000000000005,0.98028125,0.033125,-0.13934375000000002,1.1674375000000001,0.93765625,-0.477375,-0.8633125,1.1099375,0.020855994566410817,0.0291179524047731,True
58711,78445,0,78446,3455.0,39206.0,28776.0,-0.000122,0.0,0.003843,0.2625,-2.1525000000000003,-4.1475,0.97503125,0.03078125,-0.14,1.16765625,0.93153125,-0.47750000000000004,-0.86371875,1.11584375,0.020765243591053008,0.029107421833268605,True
58712,78446,0,78447,3456.0,39206.0,28776.0,0.003111,-0.0026839999999999998,-0.002257,0.08750000000000001,-2.345,-4.2700000000000005,0.97490625,0.028375,-0.140625,1.1712500000000001,0.9311875000000001,-0.4776875,-0.8641562500000001,1.11940625,0.020674440753441273,0.029099368694644526,True
58713,78447,0,78448,3453.0,39205.0,28776.0,0.0046359999999999995,-0.001647,0.0006709999999999999,0.22750000000000004,-1.9775000000000003,-4.357500000000001,0.97865625,0.029875000000000002,-0.13896875,1.1671875,0.93765625,-0.47603125,-0.86665625,1.12203125,0.020669455960103826,0.02926358464459813,True
58714,78448,0,78449,3452.0,39204.0,28777.0,0.0018909999999999999,0.001464,-0.0028669999999999998,0.22750000000000004,-2.2225,-4.357500000000001,0.97671875,0.0311875,-0.13884375000000002,1.16784375,0.93475,-0.4760625,-0.86390625,1.1140625,0.020724330149099756,0.02916124653582942,True
58715,78449,0,78450,3452.0,39208.0,28778.0,0.001281,0.000976,-0.001281,0.15750000000000003,-2.1,-4.112500000000001,0.9754375000000001,0.03090625,-0.1365,1.1681875,0.9323750000000001,-0.47621875,-0.8579375,1.10425,0.020719090852217525,0.02902241990108793,True
58716,78450,0,78451,3451.0,39208.0,28778.0,0.003965,0.001403,-0.000549,0.22750000000000004,-2.0125,-4.1475,0.975375,0.0276875,-0.141625,1.1750625000000001,0.92321875,-0.4719375,-0.8681875,1.1245,0.020416242073190975,0.029216544229449772,True
58717,78451,0,78452,3453.0,39208.0,28778.0,0.004575,0.0018909999999999999,0.000244,0.28,-1.8900000000000001,-4.1475,0.9835625,0.03034375,-0.138625,1.1683125,0.9423750000000001,-0.4796875,-0.86303125,1.1215,0.020834875853705238,0.02913587819264797,True
58718,78452,0,78453,3453.0,39209.0,28778.0,0.002257,0.001586,0.001952,0.4025,-1.7325000000000002,-3.9375000000000004,0.97628125,0.0313125,-0.13521875,1.1585,0.9291875,-0.47450000000000003,-0.862625,1.104875,0.020666918629594067,0.029257017310119104,True
58719,78453,0,78454,3452.0,39209.0,28778.0,-6.1e-05,0.002989,0.0018909999999999999,0.42000000000000004,-1.3475000000000001,-3.8325000000000005,0.97775,0.02896875,-0.1385625,1.164375,0.92859375,-0.4755625,-0.862,1.11359375,0.02061367333232893,0.029098121631405356,True
58720,78454,0,78455,3453.0,39209.0,28779.0,-0.003355,0.0013419999999999999,0.003965,0.3325,-1.05,-3.8850000000000002,0.9715625,0.03053125,-0.14290625,1.15909375,0.92803125,-0.47525,-0.86290625,1.114,0.02066500852902422,0.028958802835046683,True
58721,78455,0,78456,3453.0,39212.0,28781.0,-0.004026,-0.0021349999999999997,0.0017079999999999999,0.3325,-0.6825000000000001,-3.7275000000000005,0.97728125,0.0279375,-0.1414375,1.1868125,0.92953125,-0.47500000000000003,-0.862375,1.11359375,0.02054902962206333,0.02899712919622522,True
58722,78456,0,78457,3453.0,39211.0,28778.0,-0.004331,-0.002196,-6.1e-05,0.4025,-0.8400000000000001,-3.6050000000000004,0.9975625,0.02325,-0.146375,1.16240625,0.92759375,-0.47646875,-0.86121875,1.11965625,0.020416292689279372,0.028753367129276397,True
58723,78457,0,78458,3452.0,39211.0,28779.0,-0.00549,-0.0015249999999999999,-0.0018909999999999999,0.36750000000000005,-1.1900000000000002,-3.5000000000000004,0.9636875,0.03440625,-0.133625,1.15678125,0.94284375,-0.47984375,-0.8619375,1.1180625,0.021007078527615193,0.02929427764831281,True
58724,78458,0,78459,3454.0,39213.0,28779.0,-0.0021349999999999997,-0.000244,-0.0023179999999999997,0.4025,-1.33,-3.4475000000000002,0.9606875,0.03746875,-0.13443750000000002,1.16359375,0.94021875,-0.47903125,-0.86209375,1.11371875,0.021099691189781056,0.029267697938754656,True
58725,78459,0,78460,3453.0,39213.0,28778.0,-0.000793,-0.001098,-0.0025009999999999998,0.35000000000000003,-1.6450000000000002,-3.5700000000000003,0.99653125,0.0245,-0.134,1.1568125,0.92784375,-0.47990625000000003,-0.86184375,1.1249375,0.02060490938358884,0.029275533919321653,True
58726,78460,0,78461,3453.0,39212.0,28779.0,0.003538,0.000488,-0.001769,0.24500000000000002,-2.0650000000000004,-3.8325000000000005,0.9555,0.02928125,-0.14603125,1.18509375,0.9286562500000001,-0.47603125,-0.8609375,1.11859375,0.02064519753381178,0.028756206398089377,True
58727,78461,0,78462,3454.0,39214.0,28779.0,0.004331,-0.000366,-0.00042699999999999997,0.3325,-2.1525000000000003,-3.8325000000000005,0.975875,0.0341875,-0.1360625,1.1746875,0.93975,-0.47690625000000003,-0.86178125,1.114875,0.020880651532503215,0.029190134958652653,True
58728,78462,0,78463,3455.0,39213.0,28779.0,0.0018909999999999999,0.000732,0.0006709999999999999,0.2625,-2.1,-3.8850000000000002,0.9880625000000001,0.029375000000000002,-0.13284375,1.1572500000000001,0.92959375,-0.47684375,-0.86453125,1.12325,0.02068153701393792,0.02942695732500487,True
58729,78463,0,78464,3454.0,39215.0,28780.0,0.002196,0.00042699999999999997,0.0015249999999999999,0.2625,-1.8900000000000001,-3.8500000000000005,0.954125,0.04003125,-0.13375,1.15671875,0.9394687500000001,-0.4790625,-0.86759375,1.1161875,0.021205622151583624,0.029510042562923885,True
58730,78464,0,78465,3454.0,39215.0,28782.0,0.000549,0.0,0.000976,0.35000000000000003,-1.7850000000000001,-3.9025000000000003,0.96225,0.03259375,-0.13759375000000001,1.15821875,0.9316875,-0.4756875,-0.86428125,1.11559375,0.020766781321260128,0.02922616152437545,True
58731,78465,0,78466,3453.0,39215.0,28781.0,-0.0013419999999999999,-0.001586,-0.000549,0.24500000000000002,-1.4700000000000002,-3.8500000000000005,0.96296875,0.0335625,-0.13321875,1.16059375,0.93134375,-0.47584375,-0.863,1.1065625000000001,0.020812612435475285,0.029352099505288987,True
58732,78466,0,78467,3455.0,39217.0,28784.0,-0.0018909999999999999,0.0,-0.000244,0.29750000000000004,-1.5050000000000001,-3.8675,0.9669375,0.03271875,-0.13746875,1.16446875,0.9314687500000001,-0.476375,-0.86365625,1.11203125,0.020799393292511657,0.029206786511939493,True
58733,78467,0,78468,3454.0,39217.0,28782.0,-0.0006709999999999999,-6.1e-05,0.000244,0.24500000000000002,-1.435,-3.8325000000000005,0.9750625,0.03034375,-0.13903125,1.1675,0.9285625000000001,-0.47590625000000003,-0.86071875,1.115875,0.020683605944110853,0.02902922909258205,True
58734,78468,0,78469,3458.0,39220.0,28781.0,-0.001098,0.000488,-0.000793,0.24500000000000002,-1.3125000000000002,-3.8675,0.974875,0.03065625,-0.13990625,1.1690625000000001,0.93096875,-0.474875,-0.8648750000000001,1.1173125,0.02065511059811337,0.029156340017796187,True
58735,78469,0,78470,3455.0,39221.0,28784.0,-0.0006709999999999999,0.001098,0.000122,0.36750000000000005,-1.33,-3.8500000000000005,0.9788125,0.03096875,-0.1399375,1.1593125,0.93578125,-0.47565625,-0.8641562500000001,1.118,0.020699138557316518,0.02912701893916067,True
58736,78470,0,78471,3457.0,39220.0,28784.0,-0.0008539999999999999,0.0026839999999999998,-0.0011589999999999999,0.5775,-1.54,-3.7975000000000003,0.9760625,0.031,-0.14015625,1.16825,0.934625,-0.477625,-0.864375,1.11625,0.020779180986717462,0.029126762687580125,True
58737,78471,0,78472,3457.0,39219.0,28786.0,-0.0008539999999999999,0.00244,0.001586,0.47250000000000003,-1.6625,-3.6750000000000003,0.9763125,0.03040625,-0.13996875,1.17,0.93140625,-0.47646875,-0.86375,1.11621875,0.020708665338009594,0.029109898949273544,True
58738,78472,0,78473,3457.0,39221.0,28784.0,0.002562,0.001464,0.002989,0.36750000000000005,-1.61,-3.7625,0.9833125,0.02821875,-0.14234375,1.1754375000000001,0.9368125,-0.47981250000000003,-0.8663125,1.123875,0.020753069493485706,0.0291144394650393,True
58739,78473,0,78474,3457.0,39223.0,28786.0,0.003721,-0.001586,-0.000793,0.29750000000000004,-1.715,-3.7975000000000003,0.9736875,0.0280625,-0.1421875,1.17240625,0.9393125,-0.47871875,-0.8658750000000001,1.12303125,0.020702932011096378,0.029103641034148208,True
58740,78474,0,78475,3458.0,39223.0,28786.0,0.00244,-0.001281,-0.00122,0.29750000000000004,-1.4000000000000001,-3.6575,0.9815,0.02815625,-0.13875,1.1676875,0.93984375,-0.477375,-0.86671875,1.11609375,0.020653000985604054,0.029274821391543665,True
58741,78475,0,78476,3461.0,39225.0,28787.0,-0.0011589999999999999,-0.0021349999999999997,-0.0008539999999999999,0.45500000000000007,-1.05,-3.6050000000000004,0.97603125,0.03025,-0.138625,1.16446875,0.9322812500000001,-0.476625,-0.863375,1.1154375,0.020708533141313396,0.029149300929580155,True
58742,78476,0,78477,3462.0,39225.0,28786.0,-0.001464,-0.001403,0.000732,0.29750000000000004,-1.0675000000000001,-3.5875000000000004,0.97603125,0.02890625,-0.14140625,1.17475,0.93096875,-0.47534375,-0.86659375,1.1215625,0.020602366412116276,0.02916312170821547,True
58743,78477,0,78478,3463.0,39227.0,28787.0,0.0006709999999999999,-0.002562,0.000793,0.4025,-0.7875000000000001,-3.5700000000000003,0.981625,0.03096875,-0.1396875,1.16846875,0.9372812500000001,-0.47646875,-0.8590625000000001,1.11590625,0.020731646594241662,0.028938138757243968,True
58744,78478,0,78479,3463.0,39226.0,28787.0,0.0,-0.002013,-0.0015249999999999999,0.3325,-0.8225000000000001,-3.5700000000000003,0.98171875,0.02865625,-0.14,1.16775,0.93384375,-0.48025,-0.86634375,1.1189375,0.02078844170300548,0.02920991350004964,True
58745,78479,0,78480,3464.0,39226.0,28787.0,-0.001586,-0.0015249999999999999,-0.0015249999999999999,0.4025,-0.8575,-3.5525,0.97540625,0.0306875,-0.140875,1.17421875,0.93171875,-0.4755625,-0.8649375,1.12184375,0.020683896437518036,0.02911981982661328,True
58746,78480,0,78481,3464.0,39225.0,28787.0,-0.00183,0.001647,-0.000183,0.49000000000000005,-0.8225000000000001,-3.6400000000000006,0.98184375,0.031906250000000004,-0.1391875,1.1675312500000001,0.93734375,-0.4786875,-0.86340625,1.11565625,0.020858706170418653,0.029127897550240124,True
58747,78481,0,78482,3465.0,39227.0,28788.0,-0.000793,0.00122,-0.001586,0.49000000000000005,-0.9275000000000001,-3.7100000000000004,0.98278125,0.02659375,-0.142625,1.1746875,0.93103125,-0.47696875,-0.86690625,1.1228125,0.020572911014563437,0.029126311199246992,True
58748,78482,0,78483,3465.0,39226.0,28787.0,-0.000793,-0.000183,-0.000793,0.5075000000000001,-1.0675000000000001,-3.6750000000000003,0.97778125,0.03084375,-0.1398125,1.16775,0.9292812500000001,-0.47615625,-0.86278125,1.1163125,0.020714036747497885,0.029078353814499334,True
58749,78483,0,78484,3466.0,39229.0,28790.0,-0.00061,0.000122,0.0008539999999999999,0.42000000000000004,-1.0675000000000001,-3.5700000000000003,0.980875,0.029906250000000002,-0.141125,1.16853125,0.93315625,-0.47859375,-0.86684375,1.11765625,0.020773252139943698,0.029184192304260566,True
58750,78484,0,78485,3468.0,39228.0,28791.0,0.000305,0.001647,0.001403,0.525,-1.05,-3.6575,0.97609375,0.029875000000000002,-0.14171875,1.17253125,0.931625,-0.4758125,-0.8604375,1.12009375,0.02066070329636657,0.028910140861358534,True
58751,78485,0,78486,3469.0,39230.0,28792.0,0.0013419999999999999,0.002379,6.1e-05,0.5950000000000001,-0.9800000000000001,-3.6750000000000003,0.97871875,0.031531250000000004,-0.13909375000000002,1.16459375,0.93759375,-0.4760625,-0.8639375,1.1168125,0.02073837448323234,0.02915241200232264,True
58752,78486,0,78487,3471.0,39228.0,28792.0,0.0011589999999999999,0.002074,0.0006709999999999999,0.6125,-0.8750000000000001,-3.6575,0.9841875,0.031781250000000004,-0.13665625,1.1649375,0.9355,-0.47753125,-0.8633125,1.11659375,0.020807347554708977,0.029226043392247113,True
58753,78487,0,78488,3471.0,39227.0,28791.0,0.001281,0.001952,0.000122,0.525,-0.7525000000000001,-3.6225000000000005,0.97584375,0.03071875,-0.1419375,1.17434375,0.93225,-0.472625,-0.86346875,1.12359375,0.02056762402888942,0.029019734022429994,True
58754,78488,0,78489,3472.0,39228.0,28790.0,0.000915,0.000793,6.1e-05,0.525,-0.6300000000000001,-3.7100000000000004,0.97921875,0.031968750000000004,-0.134,1.16859375,0.9370625,-0.47634375,-0.86321875,1.1138125,0.02076750127355112,0.029329217481143706,True
58755,78489,0,78490,3472.0,39226.0,28791.0,0.001769,0.000244,-6.1e-05,0.56,-0.385,-3.6225000000000005,0.9666875,0.032375,-0.1405625,1.1664375,0.9315625000000001,-0.4771875,-0.86178125,1.13090625,0.020817853358356633,0.02900913425099016,True
58756,78490,0,78491,3473.0,39226.0,28793.0,-0.0032329999999999998,-0.000732,0.0013419999999999999,0.6125,-0.10500000000000001,-3.5525,0.98303125,0.02846875,-0.1384375,1.1674375000000001,0.947125,-0.48084375,-0.85603125,1.11178125,0.020804532115033823,0.02887000514211214,True
58757,78491,0,78492,3475.0,39224.0,28791.0,-0.010797,-0.00122,0.0025009999999999998,0.5950000000000001,-0.8225000000000001,-3.3425000000000002,0.9759375,0.02803125,-0.1335625,1.1675,0.9203125,-0.48381250000000003,-0.8644375,1.1108125,0.02090539412520007,0.029394391085661997,True
58758,78492,0,78493,3475.0,39223.0,28793.0,-0.004941,-0.0017079999999999999,-0.003965,0.5775,-2.1175,-3.6400000000000006,0.9753437500000001,0.03125,-0.13925,1.17071875,0.92528125,-0.47596875,-0.87025,1.12078125,0.02072313276670612,0.029392547320593883,True
58759,78493,0,78494,3476.0,39226.0,28791.0,0.005978,-0.0021349999999999997,0.001952,0.43750000000000006,-1.7675,-4.0075,0.9755,0.03078125,-0.14221875,1.17421875,0.9239375,-0.4760625,-0.86734375,1.13021875,0.02070773229967034,0.02915972881100339,True
58760,78494,0,78495,3476.0,39226.0,28793.0,0.007808,-0.000732,0.002013,0.3325,-1.8375000000000001,-3.9375000000000004,0.9775312500000001,0.0316875,-0.13921875,1.17459375,0.92715625,-0.4748125,-0.8649687500000001,1.1304687500000001,0.02069474485248866,0.02918764979344686,True
58761,78495,0,78496,3477.0,39223.0,28793.0,-0.002257,0.001098,0.0023179999999999997,0.47250000000000003,-1.3125000000000002,-3.9025000000000003,0.9665,0.03240625,-0.13959375000000002,1.17475,0.92490625,-0.47390625000000003,-0.86365625,1.132875,0.02068784994222163,0.02912132040113771,True
58762,78496,0,78497,3479.0,39224.0,28792.0,-0.0028669999999999998,0.002379,0.0042699999999999995,0.5075000000000001,-1.155,-3.9725000000000006,0.9667187500000001,0.031656250000000004,-0.13896875,1.16784375,0.9314375,-0.47409375000000004,-0.86190625,1.120625,0.020664707962884225,0.029078120266823868,True
58763,78497,0,78498,3480.0,39224.0,28791.0,-0.002928,0.0013419999999999999,-0.000976,0.42000000000000004,-1.4000000000000001,-3.8675,0.9779375,0.0303125,-0.14325000000000002,1.1745,0.94928125,-0.48384375,-0.86671875,1.12571875,0.02099981748168116,0.029093856623122017,True
58764,78498,0,78499,3482.0,39226.0,28792.0,0.0028669999999999998,-0.000366,0.001281,0.28,-1.2950000000000002,-3.8500000000000005,0.9832500000000001,0.029125,-0.1418125,1.16865625,0.9489375,-0.47750000000000004,-0.867,1.13128125,0.020697579409661934,0.02916264527285157,True
58765,78499,0,78500,3482.0,39225.0,28794.0,-0.0008539999999999999,-0.0025009999999999998,0.002013,0.08750000000000001,-1.155,-3.7625,0.98090625,0.0276875,-0.1423125,1.17265625,0.94921875,-0.48578125,-0.8678125,1.1261875000000001,0.020970078297991822,0.029174258893901506,True
58766,78500,0,78501,3484.0,39224.0,28792.0,-0.001647,-0.0032329999999999998,0.002074,0.15750000000000003,-1.0325000000000002,-3.6575,0.97603125,0.029125,-0.140875,1.17271875,0.94584375,-0.48434375,-0.8683125,1.12659375,0.020971309471996775,0.02925158271193512,True
58767,78501,0,78502,3484.0,39224.0,28792.0,-0.001769,-0.003843,-0.0011589999999999999,0.15750000000000003,-1.1900000000000002,-3.5000000000000004,0.98259375,0.02803125,-0.13896875,1.17015625,0.93865625,-0.47759375,-0.86434375,1.112625,0.020656646448346253,0.02917330162795871,True
58768,78502,0,78503,3486.0,39224.0,28792.0,-0.001769,-0.002562,-0.0028669999999999998,0.2625,-1.3825,-3.4475000000000002,0.9763437500000001,0.03221875,-0.13568750000000002,1.1675,0.92878125,-0.47525,-0.8619375,1.1141875,0.020733955730789268,0.02921131951200505,True
58769,78503,0,78504,3486.0,39226.0,28794.0,0.000122,0.0,-0.004026,0.1925,-1.8725000000000003,-3.535,0.97528125,0.0314375,-0.13903125,1.16840625,0.9303125,-0.476375,-0.8630625000000001,1.1168125,0.020747046897263175,0.029120758957188,True
58770,78504,0,78505,3487.0,39227.0,28793.0,0.003172,0.0018909999999999999,-0.0034159999999999998,0.35000000000000003,-2.205,-3.6925000000000003,0.97575,0.029781250000000002,-0.1416875,1.1726875,0.92303125,-0.4761875,-0.8649687500000001,1.11625,0.02067187751360378,0.02908836352348121,True
58771,78505,0,78506,3488.0,39227.0,28794.0,0.005856,0.002196,-0.001281,0.3325,-2.345,-3.8850000000000002,0.9754375000000001,0.031875,-0.13875,1.16890625,0.93465625,-0.47500000000000003,-0.8634375,1.115875,0.020709908069458632,0.029146713924814296,True
58772,78506,0,78507,3489.0,39227.0,28794.0,0.0042699999999999995,0.001281,-0.000244,0.17500000000000002,-2.2925000000000004,-3.9025000000000003,0.97646875,0.03096875,-0.138375,1.17303125,0.9311875000000001,-0.4760625,-0.8628750000000001,1.1218125,0.020715392845560843,0.029139831978401535,True
58773,78507,0,78508,3490.0,39229.0,28793.0,0.001403,0.0011589999999999999,0.000366,0.2625,-2.0300000000000002,-3.9025000000000003,0.9725,0.029718750000000002,-0.14153125,1.16696875,0.93675,-0.4799375,-0.86746875,1.1220937500000001,0.020819344412133407,0.029192255444173424,True
58774,78508,0,78509,3491.0,39226.0,28793.0,-0.000732,0.002013,0.001647,0.4025,-1.6975000000000002,-3.9200000000000004,0.97371875,0.02859375,-0.1416875,1.17359375,0.93821875,-0.47628125,-0.86646875,1.121875,0.020627112217057073,0.029146931045446495,True
58775,78509,0,78510,3489.0,39228.0,28790.0,-0.0025009999999999998,0.0034159999999999998,0.0030499999999999998,0.35000000000000003,-1.3825,-3.8150000000000004,0.982625,0.02890625,-0.13975,1.17425,0.9390000000000001,-0.47709375,-0.86784375,1.1225625000000001,0.020672388853353964,0.029278523595355953,True
58776,78510,0,78511,3490.0,39228.0,28791.0,-0.002379,-0.000488,0.000305,0.43750000000000006,-1.0850000000000002,-3.6050000000000004,0.98309375,0.0308125,-0.1414375,1.168125,0.9401875000000001,-0.479125,-0.86528125,1.11390625,0.020831524819616715,0.029110619852731407,True
58777,78511,0,78512,3487.0,39225.0,28787.0,-0.002013,-0.0026839999999999998,-0.00122,0.43750000000000006,-1.0850000000000002,-3.5525,0.97609375,0.031656250000000004,-0.1393125,1.1689687500000001,0.92034375,-0.4766875,-0.8598750000000001,1.117375,0.02076848634031872,0.028984960704750127,True
58778,78512,0,78513,3486.0,39225.0,28784.0,-0.001769,-0.0013419999999999999,-0.001647,0.49000000000000005,-1.12,-3.535,0.975375,0.03303125,-0.1365625,1.16628125,0.93159375,-0.47640625000000003,-0.8647812500000001,1.11534375,0.02081341087399217,0.02928715690993662,True
58779,78513,0,78514,3485.0,39225.0,28782.0,0.00042699999999999997,-0.000488,-0.000183,0.6125,-1.1725,-3.4475000000000002,0.976875,0.02653125,-0.1450625,1.1798125,0.93109375,-0.47653125,-0.86728125,1.12125,0.02055285100906608,0.029042931663468437,True
58780,78514,0,78515,3483.0,39222.0,28777.0,0.002257,-0.00042699999999999997,-0.000549,0.5950000000000001,-1.0850000000000002,-3.535,0.9740625,0.031718750000000004,-0.138125,1.16578125,0.93384375,-0.47584375,-0.86340625,1.1174375,0.020737283060977215,0.02917063103531923,True
58781,78515,0,78516,3480.0,39221.0,28776.0,0.001098,-0.000549,0.0006709999999999999,0.47250000000000003,-0.8575,-3.6225000000000005,0.97590625,0.0245625,-0.14403125,1.17546875,0.93196875,-0.4760625,-0.867,1.12415625,0.020453657527635418,0.029073420597579117,True
58782,78516,0,78517,3477.0,39218.0,28774.0,-0.0011589999999999999,0.001098,0.001037,0.5950000000000001,-0.77,-3.6750000000000003,0.9729375,0.0319375,-0.1380625,1.1600625,0.93884375,-0.4748125,-0.8625,1.11528125,0.02070495943533786,0.029137757667169435,True
58783,78517,0,78518,3475.0,39214.0,28770.0,-0.0026839999999999998,0.00244,0.003294,0.6125,-0.56,-3.6925000000000003,0.97959375,0.025437500000000002,-0.1415625,1.17903125,0.9314687500000001,-0.4761875,-0.86571875,1.12453125,0.020494409106810444,0.029122675169001497,True
58784,78518,0,78519,3473.0,39214.0,28766.0,-0.0030499999999999998,0.002989,0.002745,0.5425000000000001,-0.56,-3.6050000000000004,0.982375,0.02703125,-0.1375,1.16634375,0.93821875,-0.47731250000000003,-0.8656875,1.1175,0.02060453940766577,0.029284832764024722,True
58785,78519,0,78520,3469.0,39209.0,28764.0,-0.003538,0.000366,0.0006709999999999999,0.5950000000000001,-1.1725,-3.5525,0.96796875,0.0319375,-0.13853125,1.1630625,0.9361875000000001,-0.47721875,-0.86275,1.11553125,0.020801229714875184,0.029128666378417514,True
58786,78520,0,78521,3467.0,39210.0,28762.0,-0.000732,0.00042699999999999997,0.000183,0.43750000000000006,-1.3650000000000002,-3.4475000000000002,0.97284375,0.0341875,-0.13575,1.16275,0.9309375,-0.47290625000000003,-0.86365625,1.11565625,0.020720618336859765,0.029275913513323287,True
58787,78521,0,78522,3467.0,39206.0,28760.0,0.0035989999999999998,-0.002562,-0.000976,0.42000000000000004,-1.5225000000000002,-3.43,0.97596875,0.03021875,-0.1409375,1.1668125,0.928875,-0.47650000000000003,-0.86453125,1.1155,0.020702255224398912,0.029101443446676683,True
58788,78522,0,78523,3464.0,39205.0,28759.0,0.005429,-0.003904,-0.002623,0.4025,-1.5750000000000002,-3.5700000000000003,0.97296875,0.031656250000000004,-0.13240625,1.15909375,0.9311875000000001,-0.47621875,-0.86334375,1.108125,0.020749732840167564,0.02939819789926687,True
58789,78523,0,78524,3464.0,39207.0,28761.0,0.003965,-0.004209,-0.002745,0.45500000000000007,-1.4875,-3.4125000000000005,0.9636875,0.03821875,-0.1381875,1.16584375,0.93096875,-0.475625,-0.8638125,1.1163125,0.02099410127422691,0.029183979729576866,True
58790,78524,0,78525,3461.0,39204.0,28759.0,-0.0028669999999999998,-0.000976,0.002013,0.36750000000000005,-1.1375000000000002,-3.5875000000000004,0.97275,0.031906250000000004,-0.1378125,1.16584375,0.917625,-0.4758125,-0.8645,1.1169375,0.020743693391179558,0.02922590440185807,True
58791,78525,0,78526,3461.0,39204.0,28759.0,-0.004575,-0.000793,0.00183,0.42000000000000004,-1.1900000000000002,-3.7975000000000003,0.9732500000000001,0.0326875,-0.138375,1.16653125,0.9315,-0.4759375,-0.86428125,1.117625,0.02078061361285957,0.02919474094993194,True
58792,78526,0,78527,3462.0,39204.0,28758.0,-0.0021349999999999997,0.000732,0.0008539999999999999,0.385,-1.4700000000000002,-3.9550000000000005,0.9749375,0.03225,-0.1386875,1.1683125,0.93215625,-0.4764375,-0.86425,1.11671875,0.020782742586620294,0.029180952572468506,True
58793,78527,0,78528,3459.0,39201.0,28757.0,-0.000488,0.0008539999999999999,0.0015249999999999999,0.22750000000000004,-1.3125000000000002,-3.9550000000000005,0.9753437500000001,0.031468750000000004,-0.13965625,1.15559375,0.93184375,-0.46934375,-0.8651875,1.11721875,0.020466936306781827,0.029178595576647065,True
58794,78528,0,78529,3459.0,39203.0,28760.0,-0.0034159999999999998,0.00061,-0.000366,0.3325,-1.5575,-3.9025000000000003,0.9800625000000001,0.02928125,-0.14009375,1.174,0.93096875,-0.478625,-0.86746875,1.12640625,0.02074896976443734,0.02925006189059753,True
58795,78529,0,78530,3459.0,39205.0,28759.0,-0.00042699999999999997,0.004331,0.000793,0.2625,-2.24,-3.8850000000000002,0.98190625,0.031875,-0.138375,1.16859375,0.9470937500000001,-0.47521875,-0.86428125,1.11303125,0.020718660583983545,0.02919474094993194,True
58796,78530,0,78531,3460.0,39201.0,28757.0,0.0040869999999999995,0.003294,-0.001037,0.15750000000000003,-2.6250000000000004,-3.9550000000000005,0.9745312500000001,0.031593750000000004,-0.13934375000000002,1.174,0.9333750000000001,-0.47365625,-0.86425,1.14515625,0.020644647241868486,0.02915455925676423,True
58797,78531,0,78532,3459.0,39203.0,28757.0,0.0071979999999999995,-0.0008539999999999999,-0.0026839999999999998,0.052500000000000005,-2.7825,-3.99,0.9811562500000001,0.02821875,-0.1389375,1.16859375,0.94353125,-0.47931250000000003,-0.85971875,1.11171875,0.020733067973212074,0.028993942258497996,True
58798,78532,0,78533,3459.0,39204.0,28759.0,0.004575,-0.002074,-0.000488,-0.08750000000000001,-2.765,-3.9375000000000004,0.9768125,0.029375000000000002,-0.1414375,1.1706875,0.95125,-0.487,-0.8671562500000001,1.1050625,0.02108772001470168,0.02918382555303243,True
58799,78533,0,78534,3460.0,39206.0,28757.0,0.000915,-0.002562,0.001464,-0.0175,-2.5200000000000005,-3.9375000000000004,0.97559375,0.031781250000000004,-0.13978125,1.16975,0.91828125,-0.47190625,-0.8645,1.12478125,0.020582274827895767,0.02914672525085966,True
58800,78534,0,78535,3460.0,39205.0,28758.0,-0.001098,-0.003355,-0.000183,0.052500000000000005,-2.1525000000000003,-3.9375000000000004,0.97675,0.03553125,-0.1366875,1.17265625,0.95515625,-0.49028125,-0.87,1.12596875,0.02147025159214944,0.029485826296743064,True
58801,78535,0,78536,3460.0,39206.0,28759.0,-0.001281,-0.001586,-0.000549,0.22750000000000004,-2.2225,-3.9025000000000003,0.98309375,0.0289375,-0.14209375,1.17590625,0.94746875,-0.48128125,-0.86765625,1.1228125,0.020841178400333928,0.02917695550822165,True
58802,78536,0,78537,3461.0,39207.0,28758.0,-0.0011589999999999999,0.001037,-0.000793,0.15750000000000003,-2.1700000000000004,-3.9025000000000003,0.981625,0.0325625,-0.138625,1.16865625,0.9284375,-0.47071875,-0.857375,1.10534375,0.020566672157923436,0.02891495984592098,True
58803,78537,0,78538,3459.0,39210.0,28759.0,0.000976,0.001403,-0.000305,0.31500000000000006,-2.1350000000000002,-3.99,0.97646875,0.03121875,-0.13753125,1.16803125,0.9181875,-0.4726875,-0.8595,1.10609375,0.020590556308946455,0.029041965848066134,True
58804,78538,0,78539,3462.0,39209.0,28761.0,0.0013419999999999999,0.0023179999999999997,0.00061,0.385,-2.1700000000000004,-3.99,0.97321875,0.02825,-0.14121875,1.17353125,0.93671875,-0.48840625,-0.86928125,1.12896875,0.021097994076278444,0.02927557466100875,True
58805,78539,0,78540,3459.0,39210.0,28758.0,0.00122,0.002013,-0.000488,0.385,-1.8025000000000002,-3.8500000000000005,0.97503125,0.03253125,-0.13965625,1.16878125,0.94078125,-0.47153125,-0.8538125,1.11278125,0.02059791415790542,0.02873427366525759,True
58806,78540,0,78541,3461.0,39209.0,28758.0,0.000305,0.0018909999999999999,0.000183,0.42000000000000004,-1.6450000000000002,-3.7450000000000006,0.97665625,0.03215625,-0.14040625,1.17178125,0.93834375,-0.48662500000000003,-0.86459375,1.1245,0.021186310894212655,0.0291252496333265,True
58807,78541,0,78542,3461.0,39210.0,28760.0,0.000549,0.000488,-0.000183,0.5075000000000001,-1.435,-3.7450000000000006,0.976,0.031125,-0.1395625,1.17471875,0.9234687500000001,-0.4721875,-0.86075,1.12890625,0.020566714765486327,0.02900908057882405,True
58808,78542,0,78543,3461.0,39210.0,28759.0,0.000244,0.000244,0.001464,0.45500000000000007,-1.2075,-3.6750000000000003,0.98128125,0.029500000000000002,-0.13425,1.1676875,0.9415625,-0.47765625,-0.8579687500000001,1.11703125,0.020719150756110482,0.02911415479191155,True
58809,78543,0,78544,3461.0,39209.0,28757.0,-0.000244,-0.0013419999999999999,0.0,0.42000000000000004,-0.9625000000000001,-3.6050000000000004,0.9755625,0.03546875,-0.1396875,1.16825,0.9225625000000001,-0.4754375,-0.85921875,1.1125625000000001,0.020874243820973578,0.028944242264250564,True
58810,78544,0,78545,3463.0,39209.0,28757.0,-0.0023179999999999997,-0.002074,0.001281,0.35000000000000003,-0.6825000000000001,-3.535,0.97840625,0.029500000000000002,-0.134875,1.1724375,0.931,-0.4721875,-0.8640625000000001,1.111125,0.020500312855154447,0.029326965374222337,True
58811,78545,0,78546,3462.0,39207.0,28755.0,-0.00244,-0.001586,-0.00061,0.36750000000000005,-0.56,-3.6225000000000005,0.9811875,0.03259375,-0.13815625,1.1681875,0.93990625,-0.479875,-0.86440625,1.116875,0.02093428785890451,0.029208419163437697,True
58812,78546,0,78547,3463.0,39208.0,28755.0,-0.002562,-0.002196,-0.001952,0.43750000000000006,-0.42000000000000004,-3.6225000000000005,0.97559375,0.03203125,-0.13940625,1.171875,0.9312812500000001,-0.475625,-0.859125,1.1159375,0.02074129874109446,0.02895189392225189,True
58813,78547,0,78548,3464.0,39208.0,28755.0,-0.003172,-0.00244,-0.000793,0.47250000000000003,-0.42000000000000004,-3.5875000000000004,0.98146875,0.031468750000000004,-0.137875,1.1684375,0.91978125,-0.4795625,-0.8678750000000001,1.1224687500000001,0.020875832646110405,0.02935514192507402,True
58814,78548,0,78549,3464.0,39209.0,28755.0,-0.002379,-0.0008539999999999999,-0.000732,0.47250000000000003,-0.5950000000000001,-3.535,0.96765625,0.031968750000000004,-0.14250000000000002,1.1729375,0.9313125,-0.47625,-0.86346875,1.1147500000000001,0.02076375057453654,0.028997110469551838,True
58815,78549,0,78550,3464.0,39210.0,28753.0,0.000122,-0.000793,0.000305,0.42000000000000004,-0.8225000000000001,-3.6925000000000003,0.9776875,0.031468750000000004,-0.13865625,1.16825,0.93825,-0.4770625,-0.86475,1.1205,0.020775828390355258,0.029201731366693812,True
58816,78550,0,78551,3466.0,39207.0,28754.0,-0.000122,0.00042699999999999997,6.1e-05,0.49000000000000005,-1.12,-3.7100000000000004,0.9762500000000001,0.031375,-0.1383125,1.168375,0.93415625,-0.47825,-0.86746875,1.119375,0.020819503028198502,0.02932169161768827,True
58817,78551,0,78552,3466.0,39209.0,28754.0,0.0006709999999999999,0.002745,0.00061,0.49000000000000005,-1.225,-3.7800000000000002,0.976125,0.031406250000000004,-0.13990625,1.1675625,0.93090625,-0.47609375,-0.86403125,1.1163750000000001,0.02073451773733298,0.02912339486381558,True
58818,78552,0,78553,3467.0,39208.0,28756.0,-0.000366,0.003965,0.000549,0.42000000000000004,-1.33,-3.8325000000000005,0.9765,0.0315625,-0.14021875,1.17428125,0.931875,-0.4759375,-0.86340625,1.11521875,0.020734650102779518,0.029086420932369236,True
58819,78553,0,78554,3468.0,39209.0,28755.0,0.000915,0.0032329999999999998,0.001586,0.43750000000000006,-1.4875,-3.9550000000000005,0.9861562500000001,0.02809375,-0.13865625,1.16875,0.9309375,-0.4776875,-0.864625,1.12178125,0.0206629506974464,0.029196850947882783,True
58820,78554,0,78555,3467.0,39209.0,28753.0,0.003111,0.000183,0.00042699999999999997,0.2625,-1.5750000000000002,-3.7800000000000002,0.97546875,0.030625,-0.14025,1.170125,0.9373750000000001,-0.4761875,-0.8635625,1.11678125,0.020706349794060042,0.029091265581913293,True
58821,78555,0,78556,3468.0,39207.0,28754.0,0.003111,-0.000122,-0.001464,0.22750000000000004,-1.5925000000000002,-3.7975000000000003,0.98778125,0.02409375,-0.14709375,1.1791562500000001,0.92359375,-0.47596875,-0.86371875,1.1160625,0.020430754145328772,0.028822116562913582,True
58822,78556,0,78557,3469.0,39208.0,28754.0,0.0008539999999999999,-6.1e-05,-0.00042699999999999997,0.385,-1.4000000000000001,-3.7975000000000003,0.9885625,0.0375,-0.13659375,1.1635625,0.93203125,-0.47971875,-0.8655625,1.1226562500000001,0.02112845965601627,0.029316398935274438,True
58823,78557,0,78558,3469.0,39208.0,28756.0,0.000549,0.0008539999999999999,-0.00042699999999999997,0.49000000000000005,-1.2425000000000002,-3.7625,0.969375,0.034,-0.136375,1.163375,0.93890625,-0.47928125,-0.864125,1.12234375,0.02096798695835892,0.02926907743586392,True
58824,78558,0,78559,3472.0,39209.0,28756.0,0.001098,6.1e-05,-0.000183,0.42000000000000004,-1.0150000000000001,-3.6225000000000005,0.9686875,0.0338125,-0.1365,1.162375,0.93734375,-0.47821875,-0.86640625,1.1235625,0.02091783128623279,0.02935310565836187,True
58825,78559,0,78560,3473.0,39208.0,28756.0,-0.001952,-0.001037,0.002074,0.49000000000000005,-0.5950000000000001,-3.6050000000000004,0.9683125,0.0308125,-0.1364375,1.16434375,0.93590625,-0.4759375,-0.86328125,1.11625,0.020704007762726146,0.02923362136684996,True
58826,78560,0,78561,3474.0,39211.0,28755.0,-0.004575,-0.000244,-0.002379,0.385,-1.1375000000000002,-3.6050000000000004,0.99309375,0.026000000000000002,-0.14565625000000001,1.16853125,0.9314687500000001,-0.476625,-0.86465625,1.11825,0.020534898091546527,0.028916546956083495,True
58827,78561,0,78562,3473.0,39207.0,28756.0,-0.002013,-0.000793,-0.001037,0.43750000000000006,-1.12,-3.4650000000000003,0.9701875,0.03390625,-0.13734375000000001,1.17521875,0.93665625,-0.47865625,-0.86290625,1.1069375000000001,0.02093916000801719,0.029182529697227167,True
58828,78562,0,78563,3475.0,39207.0,28754.0,-0.000732,0.003172,-0.000488,0.56,-0.9975,-3.6400000000000006,0.9931562500000001,0.0305,-0.13596875,1.16346875,0.93184375,-0.4776875,-0.8667812500000001,1.12284375,0.02076125450984698,0.02938910720501875,True
58829,78563,0,78564,3476.0,39208.0,28755.0,-0.002196,0.00183,0.001281,0.49000000000000005,-1.2075,-3.7100000000000004,0.9654375000000001,0.02859375,-0.14353125,1.17865625,0.93121875,-0.47684375,-0.8648750000000001,1.117625,0.02064961909151379,0.02901055203374238,True
58830,78564,0,78565,3476.0,39207.0,28755.0,-0.00183,-0.0013419999999999999,0.0006709999999999999,0.2625,-1.4175000000000002,-3.6225000000000005,0.98246875,0.0339375,-0.13703125,1.16265625,0.9395,-0.47875,-0.86721875,1.12190625,0.02094418628402185,0.029363456659181077,True
58831,78565,0,78566,3478.0,39207.0,28753.0,-0.000244,-0.0011589999999999999,-0.000793,0.28,-1.6975000000000002,-3.5700000000000003,0.96975,0.0339375,-0.1360625,1.16246875,0.9386875,-0.47790625000000003,-0.86665625,1.1165625000000001,0.020910438367252104,0.029380458017953262,True
58832,78566,0,78567,3479.0,39207.0,28754.0,0.002989,-0.000366,0.000549,0.36750000000000005,-1.8550000000000002,-3.6225000000000005,0.9715625,0.03109375,-0.1380625,1.1688125,0.9273750000000001,-0.47578125,-0.8633125,1.11575,0.02070924702352453,0.02916948415461536,True
58833,78567,0,78568,3479.0,39208.0,28754.0,0.0035989999999999998,-0.000488,-0.001281,0.28,-2.0125,-3.7800000000000002,0.97359375,0.0318125,-0.139875,1.1675312500000001,0.93078125,-0.4744375,-0.8633125,1.1166875,0.020684847200267625,0.02909658558166777,True
58834,78568,0,78569,3481.0,39208.0,28756.0,0.001403,-0.0018909999999999999,-0.000732,0.21000000000000002,-1.9775000000000003,-3.6925000000000003,0.97278125,0.03528125,-0.13546875,1.17421875,0.924125,-0.4759375,-0.86409375,1.1161875,0.02088658503887747,0.029304305530942588,True
58835,78569,0,78570,3481.0,39209.0,28758.0,0.001647,-0.000183,-0.000549,0.24500000000000002,-1.8025000000000002,-3.7800000000000002,0.9836875,0.02871875,-0.1430625,1.17346875,0.93175,-0.476125,-0.8644375,1.1155,0.020625967141449066,0.029012319301411904,True
58836,78570,0,78571,3482.0,39207.0,28758.0,0.001403,-0.000732,-0.001281,0.2625,-1.7325000000000002,-3.8325000000000005,0.97409375,0.028875,-0.13984375000000002,1.170375,0.931,-0.4764375,-0.8638750000000001,1.11640625,0.020644854873181608,0.029119807351026337,True
58837,78571,0,78572,3483.0,39209.0,28757.0,0.000244,0.000305,0.0015249999999999999,0.24500000000000002,-1.5050000000000001,-3.9025000000000003,0.97646875,0.031468750000000004,-0.1431875,1.17409375,0.93175,-0.4754375,-0.8645625,1.1160625,0.02071081466878784,0.029012173449663548,True
58838,78572,0,78573,3483.0,39208.0,28760.0,-0.001464,0.001281,-6.1e-05,0.29750000000000004,-1.4525000000000001,-3.99,0.9776875,0.03728125,-0.1405,1.17196875,0.93453125,-0.4775625,-0.8649687500000001,1.1153125,0.021033293245599924,0.02913612147612291,True
58839,78573,0,78574,3484.0,39208.0,28758.0,-0.004758,0.000732,0.000732,0.31500000000000006,-1.61,-3.8850000000000002,0.98253125,0.0320625,-0.1380625,1.17109375,0.9400625,-0.47759375,-0.8654375,1.11771875,0.0208213378817107,0.029252451319225735,True
58840,78574,0,78575,3485.0,39207.0,28761.0,-0.001098,-0.001037,0.00061,0.29750000000000004,-1.9425000000000001,-3.9375000000000004,0.98303125,0.0319375,-0.13809375000000002,1.16990625,0.94034375,-0.47996875,-0.864625,1.1244687500000001,0.020911229717153947,0.029219473448724845,True
58841,78575,0,78576,3488.0,39210.0,28761.0,-0.00042699999999999997,0.001281,0.00122,0.15750000000000003,-2.24,-3.9725000000000006,0.9761875,0.0326875,-0.139125,1.1689375,0.9370937500000001,-0.47681250000000003,-0.866375,1.1136875,0.020815618863771583,0.029246321588892628,True
58842,78576,0,78577,3486.0,39211.0,28764.0,0.0025009999999999998,0.003477,0.001098,0.21000000000000002,-2.5025000000000004,-3.9550000000000005,0.97584375,0.031593750000000004,-0.13909375000000002,1.16846875,0.92303125,-0.47446875,-0.8636875,1.11634375,0.020677159744274327,0.029142650300764922,True
58843,78577,0,78578,3488.0,39208.0,28767.0,0.004331,0.0030499999999999998,-0.000305,0.21000000000000002,-2.7825,-3.9550000000000005,0.9758125,0.031656250000000004,-0.13953125,1.16859375,0.93096875,-0.47621875,-0.8636875,1.11659375,0.020749732840167564,0.029125054358891858,True
58844,78578,0,78579,3489.0,39211.0,28765.0,0.007991,-0.000549,-0.003111,0.08750000000000001,-2.8000000000000003,-3.8150000000000004,0.975375,0.03203125,-0.1404375,1.1713125,0.92825,-0.47625,-0.86046875,1.11634375,0.020766304070272204,0.028962899181054262,True
58845,78579,0,78580,3490.0,39210.0,28764.0,0.005612,0.000244,-0.005246,0.31500000000000006,-2.0825,-3.7275000000000005,0.97296875,0.031281250000000003,-0.139,1.1691875,0.93140625,-0.4764375,-0.86409375,1.11671875,0.020743163705911043,0.029162283463478336,True
58846,78580,0,78581,3493.0,39213.0,28767.0,0.000732,0.000549,-0.004392,0.3325,-1.4525000000000001,-3.6750000000000003,0.9759375,0.03271875,-0.1385625,1.16821875,0.93140625,-0.4723125,-0.866625,1.1222812500000001,0.020636842145588,0.02927870187450046,True
58847,78581,0,78582,3493.0,39211.0,28768.0,-0.000976,0.000549,-6.1e-05,0.42000000000000004,-0.8225000000000001,-3.6400000000000006,0.977625,0.028,-0.14240625,1.17559375,0.93978125,-0.4789375,-0.86503125,1.11984375,0.020709130042919553,0.029061897921403176,True
58848,78582,0,78583,3493.0,39213.0,28766.0,-0.002989,-0.00183,0.000122,0.4025,-0.24500000000000002,-3.7100000000000004,0.9825,0.030625,-0.14100000000000001,1.1739375,0.9391875000000001,-0.478625,-0.8645625,1.11790625,0.020803864596152764,0.029100150062966117,True
58849,78583,0,78584,3495.0,39209.0,28766.0,-0.009333,-0.0028669999999999998,0.009271999999999999,0.42000000000000004,0.07,-3.6050000000000004,0.98259375,0.02815625,-0.14115625,1.1749687500000001,0.93071875,-0.47659375,-0.8649687500000001,1.11134375,0.020621741944791647,0.029109728923347233,True
58850,78584,0,78585,3495.0,39211.0,28766.0,-0.011712,0.002074,0.004331,0.29750000000000004,-0.8575,-3.7975000000000003,0.98021875,0.029,-0.14140625,1.1754375000000001,0.931125,-0.4759375,-0.864625,1.11696875,0.020629955440930506,0.029086252054877162,True
58851,78585,0,78586,3494.0,39209.0,28764.0,-0.002745,0.002074,0.003843,0.24500000000000002,-1.5575,-3.99,0.9810625000000001,0.0311875,-0.1389375,1.1726875,0.9336875,-0.47865625,-0.86734375,1.1208125,0.020828093862382664,0.029291678971542747,True
58852,78586,0,78587,3495.0,39209.0,28764.0,0.003477,0.001403,0.000732,0.2625,-1.7850000000000001,-4.095000000000001,0.9793125,0.03403125,-0.13746875,1.1711562500000001,0.928,-0.47981250000000003,-0.86509375,1.12334375,0.020990510037607518,0.029262909977968612,True
58853,78587,0,78588,3494.0,39207.0,28762.0,0.0044529999999999995,-0.000305,-0.00183,0.14,-1.8200000000000003,-3.9375000000000004,0.9785312500000001,0.035500000000000004,-0.13840625,1.16790625,0.93671875,-0.47790625000000003,-0.86671875,1.1220937500000001,0.02097427144121038,0.029288645089131427,True
58854,78588,0,78589,3491.0,39208.0,28758.0,-0.002379,0.001586,-0.0028669999999999998,0.42000000000000004,-1.8200000000000003,-3.7100000000000004,0.9756250000000001,0.0314375,-0.13896875,1.1651875,0.9339375,-0.4758125,-0.86459375,1.1146562500000001,0.020724541830838095,0.029183062763693857,True
58855,78589,0,78590,3488.0,39205.0,28755.0,-0.000915,0.0015249999999999999,-0.001403,0.35000000000000003,-1.9250000000000003,-3.7625,0.9749375,0.03234375,-0.13846875,1.16809375,0.93196875,-0.475875,-0.8646875,1.1167500000000001,0.020764068700301827,0.02920683197808137,True
58856,78590,0,78591,3487.0,39202.0,28753.0,0.0030499999999999998,0.000732,0.0,0.35000000000000003,-2.0125,-3.8150000000000004,0.9781562500000001,0.0318125,-0.14096875,1.17084375,0.9315625000000001,-0.47775,-0.86528125,1.1168125,0.02081737496297658,0.02912947143921809,True
58857,78591,0,78592,3484.0,39202.0,28750.0,0.00549,-0.002074,-0.0017079999999999999,0.21000000000000002,-2.24,-3.9200000000000004,0.97784375,0.03015625,-0.141125,1.1666875,0.93796875,-0.48046875,-0.86884375,1.1262812500000001,0.020858464975267273,0.029262267169136078,True
58858,78592,0,78593,3481.0,39200.0,28747.0,0.0040869999999999995,-0.0030499999999999998,-0.00042699999999999997,0.07,-2.2225,-3.8850000000000002,0.9788125,0.0321875,-0.13940625,1.168625,0.93815625,-0.48040625000000003,-0.858375,1.11553125,0.020938939687734963,0.028922596509224758,True
58859,78593,0,78594,3479.0,39197.0,28749.0,0.000976,-0.0025009999999999998,-0.000122,-0.035,-1.8900000000000001,-3.99,0.96684375,0.0324375,-0.13871875,1.16821875,0.9120312500000001,-0.478125,-0.86340625,1.11340625,0.02085790884718499,0.029146750558363257,True
58860,78594,0,78595,3476.0,39199.0,28745.0,-0.001952,-0.000244,-0.00042699999999999997,0.052500000000000005,-1.61,-3.99,0.97496875,0.03209375,-0.13346875,1.15915625,0.93990625,-0.4750625,-0.8623125,1.1121875,0.020721346472557526,0.029315203483183633,True
58861,78595,0,78596,3476.0,39197.0,28744.0,-0.0023179999999999997,0.000976,0.000793,0.10500000000000001,-1.2775,-4.025,0.97696875,0.03125,-0.13875,1.16884375,0.9294375,-0.4751875,-0.8619375,1.1085625000000001,0.020691874168481856,0.029088139249002616,True
58862,78596,0,78597,3473.0,39196.0,28742.0,-0.004148,0.00244,0.000244,0.24500000000000002,-1.3475000000000001,-4.025,0.976375,0.031968750000000004,-0.13940625,1.178125,0.929,-0.46996875,-0.86278125,1.1141875,0.02051238827184853,0.029094693498942323,True
58863,78597,0,78598,3472.0,39194.0,28740.0,-0.003355,0.0023179999999999997,0.000976,0.17500000000000002,-1.4525000000000001,-4.077500000000001,0.99990625,0.018875,-0.14821875,1.1878125,0.92215625,-0.4759375,-0.8632500000000001,1.11396875,0.020216283850210025,0.02875855931947754,True
58864,78598,0,78599,3469.0,39196.0,28739.0,-0.00061,-0.000976,-0.000976,0.17500000000000002,-2.0650000000000004,-4.0600000000000005,0.9736250000000001,0.02790625,-0.1328125,1.16034375,0.9403750000000001,-0.48281250000000003,-0.8664375,1.1260937500000001,0.020860297402514518,0.029502617735250574,True
58865,78599,0,78600,3469.0,39191.0,28739.0,0.00042699999999999997,-0.000976,-0.000366,0.2625,-2.2925000000000004,-3.9200000000000004,0.9639375,0.035,-0.13771875,1.1635312500000001,0.94465625,-0.47975,-0.86146875,1.11415625,0.021027584023529656,0.02911131306351319,True
58866,78600,0,78601,3468.0,39192.0,28739.0,0.002379,0.000244,-0.001464,0.1925,-2.555,-3.8675,0.99746875,0.02284375,-0.14234375,1.151125,0.9290625,-0.47700000000000004,-0.865625,1.12659375,0.020420956408056544,0.029087595827573205,True
58867,78601,0,78602,3468.0,39194.0,28740.0,0.00549,0.001769,-0.0008539999999999999,0.1925,-2.6425,-3.9550000000000005,0.962125,0.031125,-0.139,1.18684375,0.94115625,-0.473875,-0.8618125,1.11375,0.02063424774376759,0.029073202124744527,True
58868,78602,0,78603,3467.0,39197.0,28740.0,0.0064659999999999995,0.001464,0.000244,0.24500000000000002,-2.5025000000000004,-3.99,0.99221875,0.036000000000000004,-0.13590625,1.175,0.94221875,-0.47896875,-0.8638750000000001,1.11325,0.021037191364525924,0.029278169633655256,True
58869,78603,0,78604,3466.0,39196.0,28743.0,0.0015249999999999999,0.000793,-0.000976,0.22750000000000004,-2.0475000000000003,-3.8850000000000002,1.0011875000000001,0.02009375,-0.14278125,1.1827812500000001,0.9286562500000001,-0.47740625000000003,-0.86803125,1.1222812500000001,0.02032486591588927,0.02916394919682273,True
58870,78604,0,78605,3466.0,39194.0,28740.0,-0.002074,0.0006709999999999999,0.0,0.35000000000000003,-1.6275000000000002,-3.8675,0.98721875,0.03,-0.14625,1.1785,0.939125,-0.47981250000000003,-0.867125,1.1156875,0.020825833531200454,0.028989076943957134,True
58871,78605,0,78606,3466.0,39196.0,28743.0,-0.002013,0.000122,-0.001037,0.36750000000000005,-1.4700000000000002,-3.9025000000000003,0.99809375,0.02525,-0.14290625,1.1845,0.929125,-0.47540625000000003,-0.86340625,1.1155625,0.020455482735858573,0.02897833035246327,True
58872,78606,0,78607,3467.0,39194.0,28743.0,-0.002196,-0.000549,-0.00042699999999999997,0.28,-1.1900000000000002,-3.8675,0.99734375,0.0251875,-0.1430625,1.1721875,0.932,-0.47590625000000003,-0.864375,1.11390625,0.020472939587272688,0.02900987859135812,True
58873,78607,0,78608,3467.0,39196.0,28743.0,-0.001586,-0.001281,0.000122,0.31500000000000006,-0.8925000000000001,-3.9375000000000004,0.9683125,0.03503125,-0.1355625,1.1566875,0.93159375,-0.4756875,-0.86,1.1166875,0.020866369943643055,0.029140687851971037,True
58874,78608,0,78609,3467.0,39197.0,28744.0,-0.0035989999999999998,-0.00122,0.002196,0.2625,-0.9100000000000001,-3.9025000000000003,0.96428125,0.034875,-0.133625,1.158125,0.932,-0.47565625,-0.86403125,1.11703125,0.020858735912341473,0.02937601882237017,True
58875,78609,0,78610,3466.0,39197.0,28744.0,-0.005856,-0.000122,0.002745,0.31500000000000006,-0.8925000000000001,-3.8325000000000005,0.9731562500000001,0.03496875,-0.1379375,1.17159375,0.9322812500000001,-0.47881250000000003,-0.8661562500000001,1.125625,0.02098881430624954,0.029285537446102076,True
58876,78610,0,78611,3467.0,39198.0,28743.0,-0.0030499999999999998,0.000244,0.0011589999999999999,0.1925,-1.2075,-3.8325000000000005,0.980625,0.02890625,-0.1403125,1.158875,0.9371875000000001,-0.47900000000000004,-0.8658750000000001,1.1166562500000001,0.020748651905715104,0.029179045579534206,True
58877,78611,0,78612,3467.0,39198.0,28745.0,-0.00183,-0.0017079999999999999,0.0008539999999999999,0.17500000000000002,-1.6975000000000002,-3.7975000000000003,0.974875,0.0331875,-0.138625,1.1624375,0.91796875,-0.47659375,-0.8640625000000001,1.11625,0.020827295464672244,0.029176145290014457,True
58878,78612,0,78613,3468.0,39199.0,28745.0,0.000366,-0.001769,-0.000488,0.12250000000000001,-2.0475000000000003,-3.7275000000000005,0.9755625,0.03175,-0.13859375000000002,1.164625,0.9314687500000001,-0.47609375,-0.8635,1.11721875,0.020748562053534376,0.029155438695276214,True
58879,78613,0,78614,3469.0,39203.0,28745.0,0.003111,0.0015249999999999999,-0.002257,0.1925,-2.6775,-3.8500000000000005,0.97590625,0.03246875,-0.13734375000000001,1.1689375,0.92803125,-0.47475,-0.8638750000000001,1.1166562500000001,0.020724164700354448,0.029220354832060574,True
58880,78614,0,78615,3469.0,39203.0,28746.0,0.003843,0.0013419999999999999,-0.002196,0.24500000000000002,-2.9225000000000003,-3.8500000000000005,0.9755625,0.03175,-0.1386875,1.169125,0.92425,-0.47590625000000003,-0.86409375,1.1165625000000001,0.02074106040506672,0.029174851788032696,True
58881,78615,0,78616,3470.0,39206.0,28748.0,0.0048189999999999995,0.000732,-0.002989,0.14,-2.8000000000000003,-3.99,0.9763437500000001,0.0325625,-0.140625,1.1732500000000001,0.93196875,-0.47590625000000003,-0.8640625000000001,1.12371875,0.020774256315841216,0.029095707911770255,True
58882,78616,0,78617,3470.0,39207.0,28749.0,0.004026,0.000488,-0.001403,0.2625,-2.4850000000000003,-3.9375000000000004,0.9825,0.0330625,-0.140875,1.1751562500000001,0.93921875,-0.47853125,-0.8656875,1.12396875,0.020899691438799054,0.029149103558870033,True
58883,78617,0,78618,3469.0,39209.0,28750.0,0.0015249999999999999,0.000488,-0.00042699999999999997,0.31500000000000006,-2.1700000000000004,-3.8325000000000005,0.98021875,0.031531250000000004,-0.13821875,1.169,0.938875,-0.47575,-0.864,1.1156875,0.020725871525898082,0.02919004383848134,True
58884,78618,0,78619,3472.0,39211.0,28751.0,-0.002562,0.001281,0.001037,0.385,-1.6450000000000002,-3.8500000000000005,0.975375,0.0323125,-0.13825,1.16871875,0.9310625,-0.4764375,-0.8636875,1.11659375,0.020785296062795087,0.029176585331520115,True
58885,78619,0,78620,3470.0,39211.0,28750.0,-0.002257,-0.00042699999999999997,0.00061,0.29750000000000004,-1.54,-3.9375000000000004,0.9751875,0.0329375,-0.13878125,1.16703125,0.93178125,-0.47625,-0.8639375,1.11684375,0.020803329758439303,0.02916498040585889,True
58886,78620,0,78621,3472.0,39211.0,28750.0,-0.0042699999999999995,-0.000305,-0.000122,0.22750000000000004,-1.6450000000000002,-3.99,0.9756250000000001,0.031781250000000004,-0.13846875,1.16878125,0.93159375,-0.47600000000000003,-0.86446875,1.11715625,0.020746088004575915,0.029198291236365144,True
58887,78621,0,78622,3472.0,39213.0,28750.0,-0.002074,0.000976,0.000305,0.31500000000000006,-1.7500000000000002,-3.9725000000000006,0.9658125000000001,0.032,-0.13915625,1.1680625,0.93053125,-0.46775,-0.8641562500000001,1.1165,0.020424844948963433,0.02915843967156537,True
58888,78622,0,78623,3473.0,39214.0,28751.0,6.1e-05,0.0006709999999999999,6.1e-05,0.29750000000000004,-1.8900000000000001,-3.9550000000000005,0.9755625,0.03225,-0.13859375000000002,1.16890625,0.93096875,-0.47584375,-0.8631562500000001,1.115875,0.020758988134985133,0.029142016110685866,True
58889,78623,0,78624,3474.0,39214.0,28753.0,0.0028669999999999998,0.000183,-6.1e-05,0.21000000000000002,-2.1700000000000004,-3.99,0.97690625,0.02809375,-0.13928125,1.17384375,0.9345625000000001,-0.47700000000000004,-0.8649375,1.1226562500000001,0.020635443477550353,0.029183916106766808,True
58890,78624,0,78625,3475.0,39214.0,28753.0,0.003294,-0.000366,0.000305,0.12250000000000001,-2.1,-3.9725000000000006,0.9810625000000001,0.02921875,-0.1401875,1.1734375000000001,0.93171875,-0.4769375,-0.86375,1.12203125,0.0206789043768241,0.029101101000452465,True
58891,78625,0,78626,3474.0,39214.0,28753.0,0.0025009999999999998,-0.000122,-0.000122,0.21000000000000002,-2.0300000000000002,-3.9550000000000005,0.9761875,0.0285,-0.13740625,1.172125,0.9386875,-0.47784375,-0.8653125,1.11803125,0.020685798764443864,0.02927396347823901,True
58892,78626,0,78627,3476.0,39216.0,28755.0,0.000915,-0.000488,0.001037,0.2625,-1.7500000000000002,-3.8325000000000005,0.98003125,0.03065625,-0.1426875,1.17453125,0.9364687500000001,-0.4775625,-0.8678750000000001,1.1209375,0.02076263721111937,0.029161619157246046,True
58893,78627,0,78628,3477.0,39215.0,28755.0,0.000244,-0.001037,0.0,0.29750000000000004,-1.4175000000000002,-3.8325000000000005,0.98203125,0.03009375,-0.1420625,1.17428125,0.936625,-0.47850000000000004,-0.8667812500000001,1.12059375,0.02077716159078375,0.029144051363704345,True
58894,78628,0,78629,3475.0,39215.0,28757.0,-0.002928,-0.000366,0.001647,0.31500000000000006,-1.05,-3.8150000000000004,0.9764375000000001,0.03259375,-0.1383125,1.16921875,0.9364375,-0.47609375,-0.8632500000000001,1.1161875,0.02078303446602871,0.029156988728344043,True
58895,78629,0,78630,3479.0,39216.0,28756.0,-0.0037819999999999998,0.000305,0.001281,0.31500000000000006,-0.9800000000000001,-3.8850000000000002,0.97584375,0.03265625,-0.1378125,1.166875,0.9318125,-0.47590625000000003,-0.8635,1.1166562500000001,0.020778086613238274,0.02918686025700324,True
58896,78630,0,78631,3479.0,39215.0,28757.0,-0.004758,0.0006709999999999999,-6.1e-05,0.28,-1.0675000000000001,-3.8500000000000005,0.9751562500000001,0.032125,-0.13453125,1.16565625,0.9309375,-0.4761875,-0.8633125,1.1167500000000001,0.0207676338482045,0.02931151068466843,True
58897,78631,0,78632,3479.0,39215.0,28756.0,-0.002806,0.0006709999999999999,0.0021349999999999997,0.24500000000000002,-1.4175000000000002,-3.9025000000000003,0.9756875,0.03225,-0.138375,1.16675,0.93215625,-0.47546875,-0.8641562500000001,1.11603125,0.02074398472960809,0.029189860403970074,True
58898,78632,0,78633,3480.0,39215.0,28760.0,-0.000915,-0.000183,0.000549,0.14,-1.6800000000000002,-3.99,0.97178125,0.029468750000000002,-0.13921875,1.169625,0.93934375,-0.479625,-0.8632500000000001,1.11378125,0.02079663189284967,0.02912053935024585,True
58899,78633,0,78634,3480.0,39217.0,28758.0,0.001647,-0.001037,-0.000915,0.07,-2.205,-4.0075,0.9752500000000001,0.031968750000000004,-0.1394375,1.16940625,0.93265625,-0.47550000000000003,-0.864625,1.1204687500000001,0.020733743948029664,0.02916543080782437,True
58900,78634,0,78635,3482.0,39216.0,28759.0,0.004148,-0.0013419999999999999,-0.006405,0.14,-2.205,-4.0600000000000005,0.9833125,0.031968750000000004,-0.13875,1.1686875,0.949625,-0.48178125,-0.8585,1.11325,0.020984992666740702,0.02895387895488465,True
58901,78635,0,78636,3483.0,39219.0,28763.0,0.006893,0.001098,0.004331,0.42000000000000004,-1.3650000000000002,-4.4625,0.9753125,0.032,-0.14296875,1.1744375,0.9278125,-0.47303125,-0.8696875000000001,1.12621875,0.020636236060868025,0.029221064800271417,True
58902,78636,0,78637,3485.0,39216.0,28760.0,-0.002013,0.000976,0.000793,0.21000000000000002,-1.5575,-4.7075000000000005,0.98275,0.03059375,-0.1380625,1.17353125,0.9339375,-0.472875,-0.86009375,1.1105625000000001,0.020572521618322327,0.029043786289019928,True
58903,78637,0,78638,3485.0,39218.0,28765.0,-0.002379,-0.003721,-0.00061,0.08750000000000001,-1.8900000000000001,-4.305000000000001,0.9758125,0.03271875,-0.13859375000000002,1.169375,0.925,-0.47425,-0.8624375,1.1145625000000001,0.020714373269865263,0.029113949507163162,True
58904,78638,0,78639,3487.0,39220.0,28766.0,0.004392,0.001098,-0.0023179999999999997,0.052500000000000005,-2.31,-4.077500000000001,0.97590625,0.03375,-0.1400625,1.17375,0.930875,-0.47103125,-0.87171875,1.13090625,0.020627706484580618,0.029417196992065537,True
58905,78639,0,78640,3487.0,39221.0,28764.0,0.004392,0.002379,-0.00061,0.12250000000000001,-1.995,-4.1475,0.98240625,0.032125,-0.13840625,1.1692500000000001,0.94771875,-0.47325,-0.85690625,1.1101875,0.020650097555494264,0.028905447555445475,True
58906,78640,0,78641,3489.0,39221.0,28768.0,0.001403,0.001098,0.000366,0.22750000000000004,-1.5750000000000002,-4.095000000000001,0.9751875,0.031125,-0.13878125,1.17559375,0.92509375,-0.47490625000000003,-0.86590625,1.13221875,0.02067551331274252,0.029241845951220865,True
58907,78641,0,78642,3490.0,39222.0,28768.0,-0.001586,0.000366,0.003843,0.29750000000000004,-1.05,-4.2,0.97984375,0.029906250000000002,-0.13953125,1.1680625,0.9432812500000001,-0.48059375,-0.8639687500000001,1.110625,0.020853252384860965,0.029136036458379158,True
58908,78642,0,78643,3491.0,39221.0,28769.0,-0.0037819999999999998,-0.00061,0.000122,0.3325,-0.9625000000000001,-4.1825,0.976,0.03240625,-0.13928125,1.169125,0.9243750000000001,-0.4705625,-0.8625,1.11440625,0.020554033034590028,0.029088738059326293,True
58909,78643,0,78644,3491.0,39220.0,28769.0,-0.00122,-0.000732,-0.000488,0.22750000000000004,-1.1375000000000002,-3.8500000000000005,0.97703125,0.031406250000000004,-0.141875,1.17521875,0.937875,-0.480625,-0.87,1.12690625,0.02091577523041181,0.029277241656614394,True
58910,78644,0,78645,3493.0,39220.0,28768.0,6.1e-05,0.000488,-0.000549,0.31500000000000006,-1.2950000000000002,-3.8850000000000002,0.9825625,0.029781250000000002,-0.14128125,1.17353125,0.9405625,-0.48031250000000003,-0.86434375,1.1209375,0.020836896996310812,0.029080296961386722,True
58911,78645,0,78646,3495.0,39224.0,28771.0,-0.0017079999999999999,-0.000122,0.001586,0.12250000000000001,-1.225,-3.8675,0.979625,0.0325,-0.137375,1.16871875,0.9279375,-0.47396875,-0.8612500000000001,1.11028125,0.02069418144533669,0.029116597113982606,True
58912,78646,0,78647,3495.0,39224.0,28770.0,-0.001403,-0.000732,0.00122,0.1925,-1.3125000000000002,-3.7450000000000006,0.9756875,0.0306875,-0.1383125,1.1718125,0.9249375,-0.4758125,-0.8619375,1.1069375000000001,0.020693899334291766,0.029105736429431536,True
58913,78647,0,78648,3497.0,39226.0,28772.0,0.00244,6.1e-05,-0.000488,0.24500000000000002,-1.5925000000000002,-3.7625,0.98140625,0.0290625,-0.1388125,1.17378125,0.932625,-0.47903125,-0.86546875,1.11315625,0.020756285034768278,0.029223509007848484,True
58914,78648,0,78649,3498.0,39225.0,28775.0,0.001769,0.001098,0.0008539999999999999,0.35000000000000003,-1.4700000000000002,-3.8325000000000005,0.97640625,0.03234375,-0.14240625,1.17471875,0.93121875,-0.47415625,-0.86409375,1.12284375,0.020695299761355406,0.02902528872583583,True
58915,78649,0,78650,3499.0,39228.0,28774.0,-0.00061,0.001281,0.000183,0.31500000000000006,-1.4175000000000002,-3.9200000000000004,0.98103125,0.02878125,-0.14134375,1.1755,0.93734375,-0.47940625000000003,-0.8645,1.12221875,0.020759796819009857,0.029083884654829178,True
58916,78650,0,78651,3498.0,39229.0,28772.0,-0.002196,-0.0013419999999999999,0.000244,0.12250000000000001,-1.4000000000000001,-3.8150000000000004,0.98359375,0.031375,-0.140125,1.1748125,0.9400937500000001,-0.4800625,-0.86753125,1.12421875,0.020892001399097734,0.029251245034627234,True
58917,78651,0,78652,3499.0,39228.0,28773.0,-0.002379,-0.004026,-0.000732,0.08750000000000001,-1.3475000000000001,-3.7275000000000005,0.96340625,0.0318125,-0.1385625,1.1680625,0.9342812500000001,-0.47584375,-0.86303125,1.1169375,0.020741113368155085,0.029138391964978125,True
58918,78652,0,78653,3503.0,39229.0,28774.0,-0.0037819999999999998,0.0013419999999999999,-0.00183,0.22750000000000004,-1.9425000000000001,-4.130000000000001,0.9758125,0.0325,-0.13353125,1.1709687500000001,0.93159375,-0.47540625000000003,-0.86359375,1.11959375,0.02075169845240056,0.02936271028800895,True
58919,78653,0,78654,3504.0,39229.0,28774.0,-0.002562,0.0021349999999999997,-0.000732,0.22750000000000004,-2.1875,-4.2,0.97590625,0.03234375,-0.13865625,1.16921875,0.9350625,-0.4755625,-0.86340625,1.11690625,0.020751565975245717,0.029149264292779673,True
58920,78654,0,78655,3505.0,39232.0,28773.0,0.001769,0.003355,-0.006405,0.2625,-2.31,-4.1475,0.97590625,0.031906250000000004,-0.1390625,1.16884375,0.9312812500000001,-0.4759375,-0.86375,1.116875,0.02074869450863731,0.029146347594389426,True
58921,78655,0,78656,3506.0,39230.0,28774.0,0.006039,0.000366,0.002074,0.21000000000000002,-1.61,-3.9375000000000004,0.976375,0.03209375,-0.14259375,1.17375,0.9314687500000001,-0.47378125,-0.8641875,1.123625,0.020670079332346734,0.02902140880332406,True
58922,78656,0,78657,3508.0,39235.0,28777.0,0.00244,0.001769,-0.0044529999999999995,0.385,-1.7675,-3.6050000000000004,0.9820625000000001,0.02853125,-0.14028125,1.176625,0.93803125,-0.47871875,-0.86640625,1.12303125,0.020722081297657787,0.029201043073926295,True
58923,78657,0,78658,3508.0,39236.0,28778.0,0.004697,0.007076,0.0011589999999999999,0.49000000000000005,-2.0475000000000003,-3.7800000000000002,0.984375,0.0279375,-0.14134375,1.1756875,0.939625,-0.479625,-0.8658125,1.11996875,0.02073407987254707,0.02913513282544055,True
58924,78658,0,78659,3512.0,39238.0,28778.0,0.007869,0.0044529999999999995,-0.002745,0.49000000000000005,-1.9775000000000003,-3.9025000000000003,0.98340625,0.029937500000000002,-0.14378125,1.18109375,0.93734375,-0.47853125,-0.8569687500000001,1.12234375,0.020772028550528333,0.028691652114661008,True
58925,78659,0,78660,3512.0,39239.0,28780.0,0.010614,-0.0011589999999999999,-0.000549,0.36750000000000005,-1.4175000000000002,-3.8675,0.9891562500000001,0.02640625,-0.14003125,1.16840625,0.9394687500000001,-0.4771875,-0.8625625,1.119625,0.02057400385563088,0.029061012918519567,True
58926,78660,0,78661,3513.0,39237.0,28779.0,0.005246,-0.0042699999999999995,0.0026839999999999998,0.29750000000000004,-0.45500000000000007,-3.7450000000000006,0.98584375,0.02753125,-0.1438125,1.17834375,0.93784375,-0.47850000000000004,-0.86475,1.1155,0.020672477888759526,0.028994359484812837,True
58927,78661,0,78662,3513.0,39234.0,28779.0,-0.004575,-0.005429,0.0035989999999999998,0.49000000000000005,0.42000000000000004,-3.5875000000000004,0.9864375,0.028875,-0.12990625,1.167125,0.9383750000000001,-0.4804375,-0.86109375,1.11903125,0.020804877363813454,0.029410914393096645,True
58928,78662,0,78663,3512.0,39232.0,28777.0,-0.013663999999999999,-0.000244,0.006588,0.77,1.3125000000000002,-3.3775000000000004,0.9744375000000001,0.0391875,-0.137375,1.1661875,0.93953125,-0.4790625,-0.8655,1.11859375,0.02117115391980391,0.029282540065552674,True
58929,78663,0,78664,3512.0,39231.0,28772.0,-0.010919,0.000732,0.0048189999999999995,0.6300000000000001,1.0150000000000001,-3.5000000000000004,0.9760625,0.03275,-0.13665625,1.17621875,0.93884375,-0.47878125,-0.86703125,1.1240937500000001,0.020896924760091966,0.02937121816662373,True
58930,78664,0,78665,3510.0,39228.0,28772.0,-0.009394,-0.002257,0.0042699999999999995,0.6125,0.22750000000000004,-3.4125000000000005,0.97784375,0.0305,-0.137125,1.1710625000000001,0.927875,-0.47584375,-0.86453125,1.1230625,0.02068748906766493,0.02925477430828301,True
58931,78665,0,78666,3508.0,39224.0,28767.0,-0.008479,-0.001769,0.002379,0.49000000000000005,-0.8750000000000001,-3.3950000000000005,0.972375,0.04109375,-0.137,1.1772500000000001,0.938125,-0.47203125,-0.858875,1.12040625,0.02096781402238525,0.029038924730101424,True
58932,78666,0,78667,3505.0,39224.0,28765.0,-0.0013419999999999999,-0.000976,-0.0053679999999999995,0.1925,-2.3625000000000003,-3.5875000000000004,0.98478125,0.029781250000000002,-0.1410625,1.17690625,0.93759375,-0.4755625,-0.8647812500000001,1.12059375,0.020646869709327414,0.02910617804047643,True
58933,78667,0,78668,3502.0,39223.0,28761.0,0.008418,-0.00061,-0.0034159999999999998,0.12250000000000001,-2.9050000000000002,-3.8850000000000002,0.98678125,0.02846875,-0.14140625,1.1678125,0.9364375,-0.47921875,-0.864,1.1165625000000001,0.020739530341424808,0.02906184644465894,True
58934,78668,0,78669,3499.0,39220.0,28760.0,0.002928,-0.001647,-0.002928,0.14,-3.22,-3.8500000000000005,0.9791562500000001,0.03046875,-0.13825,1.1675,0.93175,-0.476625,-0.8639375,1.11659375,0.020717470239463163,0.029186346691870507,True
58935,78669,0,78670,3496.0,39220.0,28756.0,0.001769,0.0,-0.001647,0.24500000000000002,-3.4125000000000005,-3.9200000000000004,0.9726875,0.03228125,-0.13753125,1.167125,0.93215625,-0.47596875,-0.8640625000000001,1.1168125,0.020765265930485385,0.029220134481241757,True
58936,78670,0,78671,3494.0,39221.0,28758.0,0.00488,0.001952,-0.000488,0.12250000000000001,-3.5000000000000004,-4.1475,0.97290625,0.03275,-0.13771875,1.167375,0.93134375,-0.475375,-0.86425,1.11753125,0.020760662502617426,0.029219914133746243,True
58937,78671,0,78672,3489.0,39219.0,28756.0,0.005673,0.0011589999999999999,-6.1e-05,0.08750000000000001,-3.4825000000000004,-4.235,0.9741875,0.0325,-0.1381875,1.16778125,0.93125,-0.4760625,-0.8639375,1.1168125,0.02077795397033326,0.029188860372577757,True
58938,78672,0,78673,3488.0,39219.0,28753.0,0.00183,0.000366,0.000122,0.12250000000000001,-2.9400000000000004,-4.112500000000001,0.9740625,0.0335625,-0.14146875,1.1743125,0.93196875,-0.47540625000000003,-0.8645,1.11815625,0.020795109376376547,0.029078857407146736,True
58939,78673,0,78674,3486.0,39217.0,28753.0,0.0,0.0025009999999999998,-0.0006709999999999999,0.21000000000000002,-2.6250000000000004,-4.1825,0.9809375,0.03009375,-0.14053125,1.1753125,0.9362812500000001,-0.477875,-0.8667812500000001,1.12475,0.02075215883731737,0.029205629498188477,True
58940,78674,0,78675,3484.0,39216.0,28753.0,0.001037,0.002745,0.0,0.28,-2.2925000000000004,-4.112500000000001,0.9800625000000001,0.02896875,-0.1376875,1.167125,0.94159375,-0.4799375,-0.863625,1.1142812500000001,0.02078870707901113,0.029196768371466352,True
58941,78675,0,78676,3483.0,39216.0,28751.0,0.0035989999999999998,0.00122,0.002074,0.28,-1.8375000000000001,-4.0600000000000005,0.9741562500000001,0.036875,-0.13840625,1.16878125,0.9324687500000001,-0.47615625,-0.86509375,1.1166875,0.02096045002981218,0.029225206520687257,True
58942,78676,0,78677,3481.0,39217.0,28753.0,0.001403,0.000488,-0.0008539999999999999,0.24500000000000002,-1.4875,-3.99,0.9750625,0.032875,-0.137625,1.1605625,0.928625,-0.47400000000000003,-0.8590625000000001,1.1051875,0.020710754269837383,0.029021106487825115,True
58943,78677,0,78678,3481.0,39213.0,28750.0,-0.0011589999999999999,-0.0008539999999999999,0.000366,0.5075000000000001,-1.1025,-3.6050000000000004,0.9771562500000001,0.0324375,-0.13815625,1.1691562500000001,0.92390625,-0.47246875,-0.85490625,1.10628125,0.020631602604457303,0.028837364856284662,True
58944,78678,0,78679,3479.0,39216.0,28751.0,-0.0018909999999999999,-0.000244,0.00122,0.45500000000000007,-0.8925000000000001,-3.7975000000000003,0.97640625,0.037875,-0.13803125,1.1693437500000001,0.92025,-0.472875,-0.860125,1.106,0.02087004489664578,0.029046263846219597,True
58945,78679,0,78680,3478.0,39213.0,28751.0,-0.002928,-0.000793,0.00244,0.47250000000000003,-0.665,-3.7100000000000004,0.97628125,0.0321875,-0.13921875,1.16821875,0.91253125,-0.47278125,-0.86134375,1.1265625000000001,0.020633893011240804,0.029046096915014898,True
58946,78680,0,78681,3478.0,39214.0,28752.0,-0.004941,-0.002928,0.001952,0.5775,-0.42000000000000004,-3.5525,0.9779375,0.029875000000000002,-0.14100000000000001,1.17446875,0.95478125,-0.48725,-0.86865625,1.1298125,0.021118132905900013,0.029259974591510144,True
58947,78681,0,78682,3477.0,39212.0,28749.0,-0.0070149999999999995,-0.002623,-0.000366,0.5950000000000001,-0.5425000000000001,-3.5525,0.9835,0.029343750000000002,-0.14200000000000002,1.17415625,0.9497187500000001,-0.47715625,-0.86303125,1.13278125,0.020692763278005382,0.029000134486819665,True
58948,78682,0,78683,3477.0,39212.0,28748.0,-0.0021349999999999997,0.0011589999999999999,0.00042699999999999997,0.45500000000000007,-1.435,-3.9550000000000005,0.9829687500000001,0.02859375,-0.14134375,1.1744375,0.9460000000000001,-0.47928125,-0.8654375,1.130625,0.020747136928295228,0.029120491043039157,True
